Acc_X,Acc_Y,Acc_Z,Gyr_X,Gyr_Y,Gyr_Z,Label
-0.1751709,-0.1963501,0.00018310549999999998,-24.87023,5.183206,-31.404581,9
-0.17028809,-0.1975708,0.0119018555,15.633588,14.374045,-30.366413,9
-0.16931152,-0.19372559,0.020812988,53.64122,23.587785999999998,-41.793890000000005,9
-0.1539917,-0.19329834,0.024536132999999998,64.091606,30.328245000000003,-36.404579999999996,9
-0.15234375,-0.19250488,0.035888672,59.44275,35.801525,-34.015266,9
-0.16442871,-0.20611572,0.038635254,50.641220000000004,40.717556,-35.068703,9
-0.15100098,-0.22686768,0.03765869,70.938934,47.679390000000005,-40.55725,9
-0.16290283,-0.20275879,0.026977539,95.61069,52.160305,-32.0229,9
-0.17871094,-0.18963623,0.032958984,83.1145,41.297709999999995,-44.809162,9
-0.14111328,-0.23547363,0.032348632999999995,64.43511,29.977097999999998,-30.480916999999998,9
-0.13427734,-0.23236084,0.037231445,79.38931,28.854961,-26.305344,9
-0.15429688,-0.2041626,0.040222167999999996,69.778625,22.503817,-22.282442,9
-0.14331055,-0.23828125,0.036254882999999995,34.0,8.961832000000001,-9.045800999999999,9
-0.15161133,-0.24938965,0.03692627,40.770992,0.030534351,2.5114503,9
-0.14233398,-0.19451904,0.048706055,46.282444,-1.3816794,0.259542,9
-0.15460205,-0.20123291,0.059753417999999996,52.564884,-5.2519083,-3.923664,9
-0.15423584,-0.20507812,0.068847656,78.59541999999999,-3.6564887,1.4198473999999999,9
-0.15234375,-0.18151855,0.09423828,76.07633,-2.1526718,-1.2977100000000001,9
-0.14801025,-0.17327881,0.10852051,41.17557,-4.7099237,-2.465649,9
-0.15203857,-0.17730713,0.11907959,7.603053599999999,-0.60305345,-3.4274809999999998,9
-0.14581299,-0.18988037,0.123535156,-13.587786999999999,3.7175572,-3.9312977999999994,9
-0.14300537,-0.19995117,0.11218262,-15.282442999999999,8.80916,2.1068702,9
-0.14605713,-0.18847656,0.10412598,-20.320610000000002,8.961832000000001,-2.167939,9
-0.14776611,-0.18115234,0.095214844,-23.702289999999998,9.526717,0.20610687,9
-0.14807129,-0.19763184,0.09295654,-38.328243,6.6412214999999994,2.5877862,9
-0.1453247,-0.199646,0.05633545,-43.274809999999995,14.7786255,9.206107000000001,9
-0.1585083,-0.19146729,0.06347656,-59.923664,6.9541984,2.1374047000000003,9
-0.15405273,-0.20306396,0.043151855,-61.480915,8.091603,2.5496182000000003,9
-0.15417479999999997,-0.21588135,0.037353516,-46.76336,7.137404400000001,0.86259544,9
-0.1595459,-0.22399902,0.030029297000000003,-28.343512,7.557252,-4.1755724,9
-0.15795898,-0.20874023,0.040649414,-4.1221375,5.7175574000000005,-5.221374,9
-0.16235352,-0.20129395,0.044006348,7.9770994,4.0458016,-7.8015265,9
-0.15588379,-0.20220947,0.052612305,-2.0152671000000004,2.3053436,-3.0687022,9
-0.15704346,-0.20275879,0.04931640599999999,-1.1450381,4.6793895,-5.0305343,9
-0.14880371,-0.20037842,0.011291503999999999,0.2977099,4.5801525000000005,0.22137405,9
-0.15789795,-0.19317627,0.051940917999999996,-0.32824427,-1.9770991999999998,-0.6870229,9
-0.15887451,-0.18957520000000003,0.046447754,-12.419847500000001,0.19847329,-3.2137403,9
-0.15771484,-0.22180176,0.055541992000000005,-11.473283,1.0763359,-3.7709922999999996,9
-0.15283203,-0.21215820000000005,0.051635742000000005,2.4580152,-0.2519084,-2.1526718,9
-0.15478516,-0.19134521,0.05645752,-14.290076000000001,1.0305344,-6.900763499999999,9
-0.15246582,-0.21582031,0.04248047,-12.664123,0.27480915,-3.5725190000000002,9
-0.16174316,-0.21356201,0.047851562,8.19084,-0.07633588,-0.65648854,9
-0.15509033,-0.20220947,0.047607422,19.961832,-1.8625953999999998,-2.9312978,9
-0.15240479,-0.20141602,0.06610107400000001,25.221375,-5.4580154,0.045801528,9
-0.15875244,-0.18951416,0.054016113,23.274809,-4.0610685,-0.22137405,9
-0.15557861,-0.20245361,0.07299805,14.908397,1.1374046,2.076336,9
-0.15344238,-0.19226074,0.06427002,9.801527,-2.9312978,-0.5801527,9
-0.1586914,-0.18255615,0.061340332000000004,5.328244000000001,-1.5267175,0.5038168,9
-0.15325928,-0.20672607,0.07409668,-6.152672,-2.5877862,-1.6412214,9
-0.15325928,-0.20239258,0.060546875,-4.6488547,-5.3053436,-5.0305343,9
-0.15686035,-0.19396973,0.06689453,-10.305344,-3.534351,-3.8473281999999998,9
-0.16149902,-0.20111084,0.064941406,-8.328244,-2.9160306,-3.8854961,9
-0.15130615,-0.19702148,0.08178711,-10.511451,-0.58778626,-4.5038165999999995,9
-0.15502929999999998,-0.20300293,0.057678223,-7.3664119999999995,-2.6641220000000003,-9.198473,9
-0.14733887,-0.19451904,0.057861328,-2.9312978,-1.5648855,-8.992367,9
-0.15161133,-0.19158936,0.061401367000000005,-6.2900763,-3.7557251000000003,-5.885496,9
-0.15673828,-0.21606445,0.05065918,-4.5801525000000005,-8.992367,0.45038167,9
-0.16137695,-0.23358154,0.054870605,20.694656,-12.122137,-7.206106699999999,9
-0.15051270000000003,-0.19708252,0.06793213,24.38168,-3.6106870000000004,-10.610686999999999,9
-0.15777588,-0.19378662,0.05303955,25.328245000000003,0.65648854,-14.763359,9
-0.15252686,-0.19537354,0.060668945,33.76336,-0.16793893,-10.633588,9
-0.15899658,-0.20953369,0.06756592,32.755726,2.3511450000000003,-8.954199000000001,9
-0.15551758,-0.20123291,0.07061767599999999,33.793890000000005,-0.67175573,-6.7862597000000004,9
-0.15301514,-0.19439697,0.07836914,23.343512,-0.48091602,-7.9465647,9
-0.15637207,-0.16864014,0.08459473,9.282442999999999,6.931298,-0.67175573,9
-0.15124512,-0.1864624,0.06811523400000001,-9.839694999999999,0.52671754,-0.3740458,9
-0.1515503,-0.19207764,0.09283447,-19.954199,6.961832000000001,-0.122137405,9
-0.1449585,-0.20941162,0.07464599599999999,-19.648854999999998,-1.0687023,0.099236645,9
-0.15545654,-0.21588135,0.061767578,-2.6259542000000002,-7.259542,2.2519082999999998,9
-0.15325928,-0.21374512,0.056884765999999996,11.007633,-5.0610685,0.519084,9
-0.1694336,-0.18902588,0.06793213,30.519083000000002,-10.366412,1.7175573,9
-0.16400146,-0.21405029999999997,0.09436035,56.69465600000001,-11.595419999999999,5.038168,9
-0.103515625,-0.19586182,0.08050537,72.70229,11.068703,-11.007633,9
-0.16107178,-0.24377441,0.087768555,186.7481,6.335878,-2.946565,9
-0.13775635,-0.19122314,0.13171387,250.12977999999998,19.603054,1.4427481000000002,9
-0.159729,-0.13470459,0.15704346,250.12977999999998,31.167938,-18.366413,9
-0.16351318,-0.06329346,0.16864014,227.64122000000003,17.610687,-26.38168,9
-0.15570068,-0.07287598,0.1605835,123.44275,6.068702,-30.648854999999998,9
-0.14361572,-0.099487305,0.16680908,70.51908,5.053435299999999,-51.06107,9
-0.1416626,-0.12237549,0.17675781,63.244274,8.206107000000001,-54.320609999999995,9
-0.140625,-0.09143066400000001,0.16802979,60.664124,0.03816794,-54.47328,9
-0.13977051,-0.12890625,0.18688965,36.450382,-3.7862597,-54.106869999999994,9
-0.15441895,-0.16052246,0.20806885,15.740458499999999,-3.534351,-53.76336,9
-0.13934326,-0.19055176,0.22668457,-3.4503817999999997,-0.70229006,-15.664123000000002,9
-0.15142822,-0.23114014,0.17834473,-4.2290077,-7.664122,8.755725,9
-0.15234375,-0.16644287,0.18908691,-111.07633,0.9694656999999999,22.541985,9
-0.15875244,-0.17205810000000002,0.16748047,-49.954197,-3.8549618999999997,10.282442999999999,9
-0.14471436,-0.15979004,0.17169189999999998,7.2671757,-10.969465,4.5038165999999995,9
-0.13720703,-0.14520264,0.16894531,26.603053999999997,-16.709923,7.152672,9
-0.13189697,-0.15240479,0.1605835,15.526717000000001,-11.793892999999999,10.0992365,9
-0.13067627,-0.1529541,0.1765747,-11.198473,-17.824427,10.061069,9
-0.12329101599999999,-0.1765747,0.17266846,-23.832062,-23.274809,9.122137,9
-0.12957764,-0.17596436,0.18579102,-15.564885,-26.832062,10.053435,9
-0.12957764,-0.17193604,0.1796875,7.335878,-34.503820000000005,10.770992,9
-0.118652344,-0.16418457,0.16473389,32.274809999999995,-40.099236,8.038167999999999,9
-0.11761474599999999,-0.1461792,0.18048096,23.717558,-42.198475,10.755725,9
-0.12756348,-0.13427734,0.19744873,-11.267176,-40.748093,6.6412214999999994,9
-0.12170410000000002,-0.10510254,0.19036865,-35.664124,-35.480915,1.3282443000000002,9
-0.11932373,-0.12908936,0.14428711,-22.312977,-41.610687,0.29007635,9
-0.124816895,-0.15417479999999997,0.18457031,-12.167939,-45.694656,-9.458015,9
-0.13031006,-0.13745117,0.20904541,-10.618319999999999,-48.496179999999995,-13.603053,9
-0.109375,-0.13372803,0.18963623,-12.236641,-48.954197,-9.984733,9
-0.1182251,-0.14605713,0.21557617,-26.190839999999998,-51.496179999999995,-12.015267,9
-0.11230469,-0.14990234,0.20812988,-20.641222,-54.67175699999999,-14.557251999999998,9
-0.114746094,-0.14959717,0.22192383,-19.007633,-53.656490000000005,-22.343512,9
-0.10235596,-0.15216064,0.21362305,-15.992367000000002,-52.55725,-17.10687,9
-0.11279297,-0.14318848,0.22424316,-14.19084,-50.480915,-19.435114000000002,9
-0.08972168,-0.14160156,0.22827148,-19.122137,-45.374046,-16.229008,9
-0.08929443,-0.1508789,0.22698975,-13.335876999999998,-45.82443,-18.274809,9
-0.08416748,-0.15844727,0.23071289,-10.251908,-43.76336,-20.763360000000002,9
-0.08325195,-0.16601562,0.22332764,-7.3816795,-37.816795,-16.145039,9
-0.07489014,-0.15368652,0.23730469,-4.7862597000000004,-34.137405,-20.633587,9
-0.07458496,-0.16845703,0.23742676,-6.4198474999999995,-26.656488,-16.419847,9
-0.06286621,-0.1708374,0.21966553,-8.465649,-21.603054,-15.580152499999999,9
-0.054870605,-0.17419434,0.222229,-7.0458016,-21.885496,-15.351145,9
-0.054626465,-0.168396,0.21630860000000002,-4.946564700000001,-17.10687,-17.725191,9
-0.04333496,-0.16491699,0.24645996,-3.59542,-15.175572,-15.961832000000001,9
-0.03540039,-0.16870117,0.21478271,-5.1755724,-15.862596,-15.679389000000002,9
-0.041809082000000004,-0.17437744,0.21270752,-5.961832,-15.19084,-20.007633,9
-0.034362792999999996,-0.16766357,0.21704102,-9.160305000000001,-14.229007999999999,-17.259542,9
-0.037475586,-0.1616211,0.21948242,-15.816792999999999,-13.946565,-21.045801,9
-0.043273926,-0.17425537,0.20935059,-13.534351000000001,-16.007633,-24.038168,9
-0.04046631,-0.16979979999999997,0.20220947,-10.656488000000001,-17.335878,-25.389313,9
-0.035095215,-0.17108154,0.20465088,-14.274809,-17.038168,-28.603053999999997,9
-0.012451172,-0.18652344,0.21105957,-6.7862597000000004,-18.251910000000002,-32.160305,9
-0.028076172000000003,-0.1828003,0.22003174,-7.7709923,-15.114504,-32.816795,9
-0.013916016000000002,-0.18017578,0.20837402,-18.236639999999998,-12.564885,-35.17557,9
-0.017211914,-0.1821289,0.20324707,-26.961832,-12.160305000000001,-32.671757,9
-0.032165527,-0.18884277,0.20098877,-25.465649,-12.664123,-37.82443,9
-0.017822266,-0.18261719,0.19891357,-26.770992,-14.770992000000001,-43.282444,9
-0.011779785,-0.18914795,0.20037842,-28.343512,-16.854961,-48.21374,9
-0.0030517578000000003,-0.18487549,0.19244385,-35.610687,-16.076335999999998,-43.793890000000005,9
0.0087890625,-0.19024658,0.18151855,-42.839695,-17.610687,-38.48855,9
0.0034790040000000004,-0.22149658,0.18731689999999998,-34.793890000000005,-20.145039,-48.343509999999995,9
0.016479492,-0.21490479,0.18743896,-14.801526999999998,-20.167938,-54.18320500000001,9
0.028442382999999998,-0.20703125,0.18139648,-3.0687022,-19.221375,-42.618320000000004,9
0.03375244,-0.20538330000000002,0.17944336,-11.961832000000001,-16.335878,-30.114503999999997,9
0.02960205,-0.21185303,0.18359375,-20.91603,-14.694656,-24.48855,9
0.04541015599999999,-0.22314453,0.18847656,-17.152672,-12.687023,-25.442749,9
0.0345459,-0.21154785,0.17919922,-9.702291,-8.419847500000001,-19.610687,9
0.034973145,-0.20220947,0.17437744,-9.343511999999999,-4.5648856,-19.259542,9
0.032592773,-0.1930542,0.16729736,-15.274809,-4.6412214999999994,-11.335877,9
0.034729004,-0.20709229,0.17242432,-13.702291,-3.70229,-6.8778625,9
0.04095459,-0.20739746,0.17633057,-14.480916,-3.6793892,-10.419847500000001,9
0.028747559,-0.20245361,0.16461182,-16.847328,-3.793893,-12.152672,9
0.023254395,-0.19158936,0.1694336,-24.946566,-3.8473281999999998,-14.557251999999998,9
0.032287598,-0.19616699,0.15917969,-32.10687,-2.1145039,-18.603054,9
0.03741455,-0.20983887,0.14721679999999998,-31.160304999999997,-5.6946564,-17.755726,9
0.02947998,-0.21838379,0.15447998,-28.114503999999997,-4.183206,-18.717558,9
0.04095459,-0.2230835,0.14697266,-27.80916,-3.9694656999999998,-16.717558,9
0.052124023,-0.22991943,0.14941406,-25.694656,-4.587786,-17.656488,9
0.04498291,-0.22711182,0.14465332,-19.816793,-3.2671757,-15.366412,9
0.054260254,-0.23663330000000002,0.13659668,-13.137404,-4.603053599999999,-12.320611,9
0.05847168,-0.22686768,0.14630127,-8.664123,-3.793893,-9.167939,9
0.061279297,-0.2232666,0.14367676,-3.4427480000000004,-3.1755726,-7.8778625,9
0.07171631,-0.22296143,0.14337158,-2.5801528,-1.0763359,-7.4198475,9
0.06640625,-0.22106934,0.14147949,-2.4122138,0.77099234,-6.3206105,9
0.05822754,-0.21881104,0.14556885,0.54198474,-0.39694658,-4.6488547,9
0.060424805,-0.21771239999999997,0.15386963,-1.9694656000000004,1.8320610000000002,-4.1679387000000006,9
0.04296875,-0.21173096,0.15405273,-5.259542,1.8244275,-5.9160304,9
0.0423584,-0.22021484,0.15002441,-9.2595415,3.053435,-3.648855,9
0.046936035,-0.21533203,0.14379883,-8.389313000000001,4.7022900000000005,-3.183206,9
0.044006348,-0.22412110000000002,0.14416504,-12.0,3.4732822999999997,-1.9083970000000001,9
0.052001953,-0.22253418,0.092285156,-14.511451000000001,6.763358599999999,2.7480917000000002,9
0.04425049,-0.23468018,0.13250732,-12.557252,1.1145038999999999,0.053435113,9
0.03930664,-0.23352051,0.13403320000000002,-10.351144999999999,-0.5038168,3.6946564,9
0.03869629,-0.24145508,0.1239624,-9.687023,-1.2442749,1.4961832,9
0.046447754,-0.23211669999999998,0.12670898,-5.625954,-5.587786,4.7862597000000004,9
0.040771484,-0.22839355,0.1293335,-2.6183207000000004,-5.3206105,5.328244000000001,9
0.055419922,-0.22320557,0.13043213,-1.0458015,-5.7175574000000005,6.236641400000001,9
0.04748535,-0.21746826,0.12841797,-0.89312977,-9.709924,7.2137402999999996,9
0.044006348,-0.22564697,0.13421631,0.77099234,-9.854961,6.839694500000001,9
0.044921875,-0.22601318,0.15142822,-1.4122137,-11.511451,6.5038165999999995,9
0.03503418,-0.22546387,0.12689209,-0.84732825,-14.061069,5.625954,9
0.04522705,-0.22552489999999997,0.13116455,-1.2290076,-15.038167999999999,5.4198474999999995,9
0.039489746,-0.22686768,0.13140869,1.9541985,-14.366412,1.3435115,9
0.032104492000000005,-0.22662354,0.12310791,1.4045801000000002,-16.160304999999997,0.5954198,9
0.04541015599999999,-0.22821045,0.12908936,2.2442749,-15.564885,-3.076336,9
0.04510498,-0.23168945,0.12445068,3.6717557999999997,-14.946565,-4.1984735,9
0.051879882999999995,-0.22949219,0.13250732,6.9541984,-12.541985,-5.10687,9
0.047912598,-0.22546387,0.13122559,5.1679387000000006,-8.938931,-7.6870227,9
0.056396484000000004,-0.22491455,0.14044189999999998,3.793893,-6.4961834000000005,-1.4198473999999999,9
0.050354004,-0.23187256,0.13354492,6.0458016,-3.9847328999999996,-5.778626,9
0.046813965,-0.22808838,0.14648438,6.671755999999999,-1.1679389999999998,-5.816794,9
0.054504395,-0.21258545,0.14294434,2.1908397999999996,4.190840000000001,-5.3816795,9
0.049926757999999995,-0.22528076,0.13848877,2.0305343000000002,5.847328,-4.7175574000000005,9
0.051635742000000005,-0.21868896,0.13897705,0.64122134,7.6412214999999994,-3.9694656999999998,9
0.050964355,-0.22149658,0.13922119,-3.9694656999999998,8.297709,-8.381680000000001,9
0.04925537,-0.22644043,0.12841797,-1.648855,8.19084,-5.076336,9
0.03869629,-0.23156738,0.12927246,-2.8015267999999995,7.6946563999999995,-4.7099237,9
0.046325684000000006,-0.22497559,0.1296997,-4.328244000000001,6.10687,-5.6793895,9
0.038513184,-0.23321533,0.12841797,-1.6870228999999999,3.0305343,-3.0839694,9
0.040161132999999995,-0.23657227,0.11938476599999999,1.5114504,2.7328243,-3.0305343,9
0.045166015999999996,-0.23602295,0.12835693,1.0839695,0.7633588000000001,-0.35877863,9
0.04559326,-0.23327637,0.12670898,4.0839696000000005,-1.4427481000000002,-0.08396947,9
0.039123535,-0.23138428,0.118652344,2.1450381000000003,0.6946565,0.16030534,9
0.03741455,-0.22802734,0.13574219,1.5877863,-0.64122134,2.70229,9
0.040222167999999996,-0.21832275,0.13702393,2.8244274,-0.32061067,3.0,9
0.04711914,-0.22113037,0.12994385,-0.67175573,2.4503817999999997,-2.9007633,9
0.04449463,-0.22796631,0.12371826,1.4198473999999999,0.045801528,-2.4732822999999997,9
0.041381836,-0.22351074,0.13726807,-1.4732825,8.145039,-1.4961832,9
0.05871582,-0.23443604,0.16467285,-35.160305,9.732824,-5.343511599999999,9
0.040405273,-0.21899414,0.13745117,-39.320609999999995,2.870229,1.9923664,9
0.043884277,-0.21551514,0.097473145,-62.946564,3.5038167999999996,-1.480916,9
0.05883789,-0.26483154,0.10961914,-74.862595,-1.1603054,-11.419847500000001,9
0.045715332000000004,-0.23651123,0.1428833,-34.351147,12.366412,-13.282442999999999,9
0.047607422,-0.21905518,0.101501465,13.152672,23.229008,-6.015267400000001,9
0.028198242000000002,-0.22363281,0.09082031,-25.694656,12.748092,-9.923664,9
0.04034424,-0.24371338,0.10803223,-28.717558,12.282442999999999,-17.847328,9
0.044311523,-0.22937012,0.08929443,0.4274809,14.0992365,-8.984733,9
0.03466797,-0.24267578,0.10223389,-16.351145000000002,6.862595599999999,-3.0,9
0.034362792999999996,-0.24157715,0.08325195,-19.114504,2.908397,0.4274809,9
0.020629883,-0.27178955,0.060913086,-11.7786255,2.2748091,4.190840000000001,9
0.04144287,-0.21575928,0.11468506,-20.549618,4.4961834000000005,1.6793894,9
0.033813477,-0.20385742,0.078063965,-35.610687,-2.3816792999999996,1.8549619,9
0.033569336,-0.23297119,0.08880615,-64.28244000000001,-7.6946563999999995,5.89313,9
0.03186035,-0.24023438,0.099487305,-74.0229,-2.3053436,1.1984733,9
0.030822753999999997,-0.18109131,0.077941895,-136.32825,-14.793892999999999,6.236641400000001,9
0.03881836,-0.23388672,0.028747559,-191.00763,-23.229008,29.045801,9
0.01159668,-0.2913208,-0.005981445300000001,-166.14503,-17.267176,24.030535,9
-0.00592041,-0.17840576,0.07678223,-93.53435,4.8702292,-52.282444,9
0.043151855,-0.23974610000000002,0.003112793,-146.0458,0.045801528,-16.824427,9
0.04309082,-0.2322998,-0.03491211,-154.61068999999998,-0.29007635,-14.412213000000001,9
0.040771484,-0.30358887,-0.107543945,-134.01527,-9.702291,6.114504,9
0.024291992000000002,-0.25335693,-0.083862305,-72.60305,-11.931297,2.3511450000000003,9
0.05053711,-0.23034668,-0.07489014,-48.25954,-28.557251,5.2137402999999996,9
0.018249512,-0.21313477,-0.08160400400000001,6.328244000000001,-6.3129773,-2.6183207000000004,9
0.0357666,-0.25073242,-0.054260254,36.297709999999995,8.305344,-0.8167939000000001,9
0.03540039,-0.21789551,-0.08129883,36.053436,20.335878,0.79389316,9
0.028808594,-0.20843506,-0.045715332000000004,-19.809160000000002,8.656488000000001,-3.7404580000000003,9
0.011230469,-0.21716309,-0.07647705,-64.30534,-9.992367,-0.73282444,9
0.033813477,-0.27447509999999997,-0.09674072,-11.618319999999999,-2.6717557999999997,-2.9694657,9
0.017822266,-0.22143555,-0.05999756,40.89313,7.2824425999999995,-5.6793895,9
0.0068969727,-0.19042969,-0.07269287,17.610687,2.8396947,-12.267176,9
0.019348145,-0.21893310000000002,-0.066345215,0.6946565,-8.442748,-25.671754999999997,9
0.037719727,-0.21759033,-0.06671142599999999,1.389313,-8.572519,-31.053434000000003,9
0.01928711,-0.20788574,-0.076171875,5.9923663000000005,-6.9541984,-42.76336,9
0.018066406,-0.26971436,-0.026672362999999998,64.56489,-5.4503818,-24.557251,9
0.055908203,-0.30023193,-0.11303711,209.74046,19.496183,-19.206106,9
0.025268555,-0.14660645,0.015563965,143.37403999999998,0.89312977,-36.46565,9
0.06506348,-0.24719238,0.01586914,111.49618500000001,1.221374,-28.48855,9
0.05340576,-0.20220947,0.06011963,67.99235999999999,13.480916,-15.358779,9
0.05645752,-0.24389648,0.022155762000000002,-8.022901,-0.519084,-9.320611,9
0.059387207000000004,-0.25476074,0.018859863,-29.099237,11.091603,-2.4732822999999997,9
0.038879395,-0.2518921,-0.020324707,-59.30534399999999,-4.9770994,8.885496,9
0.036071777,-0.22698975,0.014038086000000002,-49.770992,-0.8549618,6.2290077,9
0.06402588,-0.24462889999999998,-0.041931152,-45.625954,7.59542,10.129771,9
0.041137695,-0.23840332,-0.010864258,-24.030535,3.076336,1.3969465,9
0.05871582,-0.23120117,-0.018859863,-19.595419,6.2442746,-2.2671757,9
0.043945312,-0.23895264,-0.025756836,-27.022902000000002,-2.1984732000000005,-7.5496182,9
0.038513184,-0.25598145,-0.046875,3.2671757,1.4198473999999999,-8.2213745,9
0.03704834,-0.23522949,-0.020935059,31.862595000000002,5.5343513,-6.366412,9
0.04345703,-0.21807861,-0.0087890625,6.557252,1.6412214,-10.961832000000001,9
0.055419922,-0.26123047,-0.030761719,-9.091603,-3.3587787000000002,-10.328244,9
0.050048828,-0.25958252,-0.02960205,22.908398000000002,7.7480917,-1.9465648999999998,9
0.044921875,-0.24114989999999997,-0.026855469,37.427483,8.122137,-4.145038,9
0.034729004,-0.21563720000000003,-0.009155273,20.007633,6.59542,-8.465649,9
0.043884277,-0.23706055,-0.008728027,7.557252,0.64122134,-10.7404585,9
0.046020507999999995,-0.24920654,-0.014404297,18.08397,2.8091602000000004,-5.946564700000001,9
0.047851562,-0.26831055,-0.03967285,35.78626,-2.6641220000000003,-3.8015267999999995,9
0.041503906,-0.23339844,-0.005676269499999999,56.18320500000001,9.351144999999999,-6.89313,9
0.046203613,-0.23394775,0.007019043000000001,38.045803,1.8320610000000002,-8.007633,9
0.050476074,-0.24609375,0.009460449000000001,27.328245000000003,0.60305345,-2.9923662999999996,9
0.04833984400000001,-0.25231934,0.010803223,35.87786,3.5190839999999994,-3.0687022,9
0.05224609400000001,-0.24249268,0.021850586,29.717558,5.625954,-0.030534351,9
0.04663086,-0.2388916,0.023620605,16.259542,2.2595419999999997,3.6793892,9
0.049133300000000005,-0.24371338,0.01574707,7.534351299999999,2.6641220000000003,0.9847328000000002,9
0.05279541,-0.23773193,0.033081055,8.312977,1.8702290000000001,2.3358779999999997,9
0.05267334,-0.23333739999999997,0.023742676,-2.1221373,1.0076336,-0.29007635,9
0.05126953,-0.2388916,0.015380858999999998,-8.595419999999999,-1.5954198999999998,-1.4732825,9
0.04876709,-0.24700928,0.023071289,-9.709924,-1.0839695,-2.2748091,9
0.037475586,-0.25115967,0.0009765625,-9.717557000000001,0.60305345,0.259542,9
0.03717041,-0.24359131,0.019958496000000003,-3.3969467000000004,2.8931298,-5.9923663000000005,9
0.046142578,-0.24645996,0.016357422,-5.3816795,1.5572518999999998,-5.7862597000000004,9
0.045837402,-0.24914551,0.013244628999999999,-5.40458,-0.83206105,-3.0610687999999997,9
0.043823242000000005,-0.25048828,0.010803223,2.8931298,0.9465648999999999,-6.221374,9
0.043823242000000005,-0.24859619,0.019042969,8.923664,3.0839694,-5.396946400000001,9
0.046691895,-0.24853516,0.020935059,14.351145,3.206107,-5.4503818,9
0.04168701,-0.24822998,0.016723633,10.572519,1.3129771000000001,-6.8778625,9
0.055603027,-0.23919678,0.014770508,4.7022900000000005,-1.4351145,-11.748092,9
0.04547119,-0.24273682,0.01977539,6.8244276,-1.9770991999999998,-13.488548999999999,9
0.041320800000000005,-0.2553711,0.028259277000000003,11.763359,-2.4580152,-13.885496,9
0.043945312,-0.25494385,0.029724121000000003,12.648855000000001,-4.2900763,-12.992367,9
0.044555664,-0.24432373,0.036865234,13.427481,-0.4274809,-11.229008,9
0.04437256,-0.24353027,0.02709961,9.0992365,-1.0534351,-12.145039,9
0.053833007999999995,-0.24682617,0.027282715,8.389313000000001,1.0763359,-8.664123,9
0.050964355,-0.24743652,0.024536132999999998,16.473282,1.7786259999999998,-8.19084,9
0.05517578,-0.24468994,0.034606934,17.809160000000002,3.4427480000000004,-9.717557000000001,9
0.051879882999999995,-0.24444580000000002,0.025634766,16.42748,2.8473282,-11.687023,9
0.052124023,-0.24926758,0.032592773,26.503816999999998,3.2137403,-8.679389,9
0.058288574,-0.2467041,0.037353516,35.564884,5.2442746,-7.290076299999999,9
0.055541992000000005,-0.23675537,0.04144287,34.068703,3.9847328999999996,-12.458015,9
0.051635742000000005,-0.24896239999999997,0.030029297000000003,47.961834,3.8931297999999996,-13.274809,9
0.061584473,-0.2232666,0.13214111,43.244274,9.015267,-10.137404,9
0.07220459,-0.24169922,0.058410645,16.908398000000002,-2.923664,-20.847328,9
0.055541992000000005,-0.23681639999999998,0.07055664,35.778625,6.396946400000001,-13.870229,9
0.059509277,-0.23950195,0.075683594,30.244274,6.4656487,-12.427481,9
0.085876465,-0.28479004,0.06762695,58.923664,10.763359,-3.4427480000000004,9
0.05328369,-0.18182373,0.052001953,49.244274,11.137404,-13.519084,9
0.050964355,-0.24761963,0.07940674,-12.297709,-4.671755999999999,-15.641221,9
0.08142089999999999,-0.24743652,0.07537842,31.122137,11.946565,-4.091603299999999,9
0.04168701,-0.21710205,0.08563232400000001,23.351145000000002,11.152672,-5.3053436,9
0.07263183599999999,-0.22790527,0.09124756,-13.045800999999999,3.0076337000000004,-20.328245000000003,9
0.07330322,-0.25146484,0.07098389,-3.9847328999999996,3.961832,-8.396947,9
0.05444336,-0.22564697,0.084472656,2.9847328999999996,6.6335880000000005,-11.366412,9
0.07104492,-0.23413086,0.09161377,-1.2977100000000001,2.908397,-10.465649,9
0.07507324,-0.23706055,0.07965088,-2.7251909,4.89313,-4.946564700000001,9
0.06695557,-0.23937988,0.08215332,-4.7175574000000005,7.068702,-4.10687,9
0.06628418,-0.23651123,0.07653808599999999,-4.5496182,8.030535,-3.5801528,9
0.064941406,-0.23156738,0.078063965,2.9312978,9.465649,-0.740458,9
0.06341553,-0.23364258,0.083496094,-1.5038168,7.816794,-2.6946564,9
0.07409668,-0.23577881,0.09466553,-0.129771,8.557252,0.29007635,9
0.07312012,-0.23510742,0.08813476599999999,0.24427481,5.7099237,-5.038168,9
0.06958008,-0.23516846,0.08898926,7.519083999999999,5.221374,-3.0458016,9
0.066223145,-0.23028564,0.08215332,5.6183205,0.3053435,-4.5038165999999995,9
0.07110596,-0.24865723,0.08453369,6.366412,1.1145038999999999,-2.9389312000000003,9
0.0635376,-0.23419189999999998,0.08709717,11.083969,2.0610688,-2.5114503,9
0.07336426,-0.23034668,0.091674805,0.41221374,2.0,-4.1603055,9
0.06896973,-0.22430419999999998,0.08135986,-0.08396947,1.7633588,-4.7557254,9
0.06225586,-0.2387085,0.08148193,-2.7251909,0.90839696,-6.236641400000001,9
0.05517578,-0.24237060000000002,0.078186035,5.396946400000001,-0.45038167,-3.870229,9
0.07452392599999999,-0.24127197,0.07470703,11.374044999999999,2.465649,-5.0458016,9
0.06793213,-0.23699951,0.07775879,12.083969,1.7938931,-4.366412,9
0.06573486,-0.23443604,0.08563232400000001,5.343511599999999,0.55725193,-6.152672,9
0.0680542,-0.23321533,0.08728027,5.4885497,2.4503817999999997,-6.259542,9
0.06506348,-0.23571777,0.08917236,-2.206107,-0.48091602,-5.114504,9
0.06341553,-0.23883057,0.08422851599999999,0.9847328000000002,2.4732822999999997,-4.5496182,9
0.062316895,-0.23205566,0.08685303,-2.2748091,-1.3969465,-4.2137402999999996,9
0.05505371,-0.24163818,0.08355713,-0.4427481,-0.58778626,-5.587786,9
0.06945801,-0.23596191,0.08764648400000001,-2.9770992,-0.007633588,-6.9541984,9
0.064453125,-0.24084473,0.0859375,-3.2900763,-1.7251908999999999,-7.458015400000001,9
0.07196045,-0.23632812,0.07702637,-0.38167940000000006,-1.3969465,-4.2748094000000005,9
0.060668945,-0.23345947,0.08111572,1.2137405,-0.122137405,-7.290076299999999,9
0.06585693,-0.23883057,0.09075928,0.41984734,-1.5038168,-4.3129773,9
0.06414795,-0.2376709,0.0925293,-0.9312976999999999,0.114503816,-5.3816795,9
0.06970215,-0.24035645,0.08453369,-1.2671756,2.427481,-3.40458,9
0.06793213,-0.23352051,0.08642578,-1.8244275,1.6717557,-5.5343513,9
0.061828613,-0.23516846,0.09039307,-4.3511453,3.0687022,-6.1679387000000006,9
0.06597900400000001,-0.23638916,0.08697510000000001,-3.0,1.9923664,-5.2061067,9
0.061462402,-0.23529053,0.08441162,-2.7099237,0.9236641,-5.3893127,9
0.06121826,-0.23449707,0.083862305,-3.793893,0.3053435,-5.4503818,9
0.058654785,-0.2442627,0.080566406,0.8854962,2.3206108,-4.809159999999999,9
0.06915283,-0.23931885,0.08679199,-2.0458016,1.3664121999999999,-6.068702,9
0.064941406,-0.23394775,0.091674805,0.67175573,2.6259542000000002,-4.5038165999999995,9
0.06915283,-0.23254395,0.08734131,0.061068702,0.4274809,-4.6488547,9
0.06304932,-0.23834229,0.09106445,-1.6259542,2.6793892,-4.3587785000000006,9
0.07098389,-0.23699951,0.08874512,-1.0992366000000002,1.8320610000000002,-6.0992365,9
0.060546875,-0.23651123,0.07885742,0.57251906,1.8244275,-5.1984735,9
0.061828613,-0.23706055,0.08673096,0.061068702,-0.8091603,-5.5114503,9
0.058532715,-0.23712158,0.08935547,2.870229,1.1679389999999998,-5.0,9
0.06524658,-0.23657227,0.08245849599999999,0.13740458,0.015267176,-4.9160304,9
0.055664062,-0.23028564,0.076660156,-2.557252,0.053435113,-4.0839696000000005,9
0.0769043,-0.24090576,0.082092285,-1.519084,0.31297709999999995,-3.8473281999999998,9
0.067871094,-0.23577881,0.08026123,0.5954198,0.32824427,-2.312977,9
0.06402588,-0.23223877,0.08502197,2.7633588,2.6259542000000002,-4.10687,9
0.06481933599999999,-0.23529053,0.08312988,3.3816792999999996,3.534351,-2.5954200000000003,9
0.06585693,-0.23339844,0.08312988,5.7022900000000005,4.3893127,-0.9389313,9
0.07208252,-0.23980713,0.08935547,3.9770992,5.931298,-1.6870228999999999,9
0.07611084,-0.23864746,0.050354004,3.206107,9.412213000000001,3.4198472,9
0.06323242,-0.22918701,0.08782959,7.038167999999999,6.923664,-0.6259541999999999,9
0.054626465,-0.24273682,0.077941895,12.923664,5.6946564,-6.2137402999999996,9
0.06237793,-0.2244873,0.09539795,5.0,5.114504,-3.946565,9
0.06719971,-0.23669434,0.07922363,-1.0763359,2.0839694,-7.0458016,9
0.06262207,-0.23388672,0.08605957,0.65648854,3.2595419999999997,-1.3053435,9
0.059326172,-0.23175049,0.08972168,5.6106873,2.0687022,-5.7938933,9
0.05657959,-0.23065186,0.09527588,1.9923664,2.1374047000000003,-4.114504,9
0.056396484000000004,-0.22906494,0.09320068,2.3053436,0.9694656999999999,-3.2290077,9
0.055786132999999995,-0.23327637,0.10308838,3.5725190000000002,1.9236640999999999,-4.1679387000000006,9
0.060913086,-0.23669434,0.08538818,0.16793893,-1.7633588,-2.1221373,9
0.06121826,-0.24108887,0.08581543,8.145039,-1.7633588,-2.832061,9
0.06384277,-0.23937988,0.09515381,4.038168,-1.70229,-2.427481,9
0.06463623,-0.24060059,0.08660889,0.030534351,-1.2061069,-3.6335877999999995,9
0.06561279,-0.23748779999999997,0.09509277,5.0305343,1.3206106000000002,0.7557252,9
0.066223145,-0.22882080000000002,0.0836792,-0.4427481,-0.5038168,-2.7404580000000003,9
0.06713867,-0.2364502,0.08856201,-0.22137405,-0.89312977,-3.8473281999999998,9
0.06549072,-0.22991943,0.09259033,1.1145038999999999,3.1603053,-3.3664122000000005,9
0.06976318,-0.23242188,0.103027344,-3.6717557999999997,2.6488549999999997,-1.0,9
0.07342529,-0.23559570000000005,0.08959961,-3.3969467000000004,0.8091603,-6.900763499999999,9
0.05029297,-0.23101807,0.08514404,-0.6870229,2.5877862,-7.5038165999999995,9
0.059570312,-0.23986816,0.087402344,6.10687,3.8396947,-8.938931,9
0.06347656,-0.22265625,0.095581055,2.1603053,3.167939,-5.7557254,9
0.059448242000000005,-0.24182129,0.091674805,-4.3511453,2.7328243,-7.59542,9
0.068359375,-0.23840332,0.08618164,0.55725193,4.335878,-5.4656487,9
0.05706787,-0.24176025,0.0847168,-0.007633588,0.9694656999999999,-6.0610685,9
0.06378174,-0.24163818,0.08380127,0.5954198,1.0610687,-5.480916000000001,9
0.06329346,-0.23150635,0.08770752,1.9312977,2.9694657,-1.6030535,9
0.06262207,-0.23168945,0.08569336,1.389313,1.7786259999999998,-3.1145039,9
0.06036377,-0.2376709,0.08258057,6.221374,2.8778627,-3.3664122000000005,9
0.05883789,-0.23010254,0.09234619,3.648855,0.4427481,-4.2824425999999995,9
0.064575195,-0.23358154,0.093811035,5.2748094000000005,0.9847328000000002,-3.206107,9
0.06762695,-0.22851562,0.09155273400000001,3.6259542000000002,0.31297709999999995,-5.5419846,9
0.061279297,-0.23364258,0.09533691400000001,3.6412212999999998,0.33587787,-4.3511453,9
0.06750488,-0.23895264,0.10345459,3.1221373,-0.03816794,-5.809159999999999,9
0.066589355,-0.22625732,0.097839355,0.64122134,0.6488550000000001,-5.221374,9
0.0703125,-0.23413086,0.095825195,1.0763359,2.4198472,-3.076336,9
0.06774902,-0.23278809,0.0993042,2.3740457999999998,1.2748091000000001,-6.0229006,9
0.062683105,-0.23529053,0.09631348,0.22900763,0.519084,-2.7480917000000002,9
0.07043457,-0.23077393,0.09442139,0.35877863,-0.5648854999999999,-5.0458016,9
0.05999756,-0.24493408,0.08813476599999999,4.091603299999999,1.7557251,-6.259542,9
0.059265137,-0.22753906,0.10211182,2.053435,-0.7251908,-5.4656487,9
0.067871094,-0.23828125,0.08911133,2.1374047000000003,-1.2977100000000001,-9.679389,9
0.06701660000000001,-0.22735596,0.09753418,5.4198474999999995,0.40458015,-7.625953999999999,9
0.06536865,-0.23791504,0.09088135,8.267176,-2.0,-11.374044999999999,9
0.06829834,-0.24096679999999995,0.08496094,44.25954,-1.6412214,-16.847328,9
0.06817627,-0.23114014,0.099121094,53.198475,-5.1755724,-24.160304999999997,9
0.064941406,-0.23248291,0.10736084,54.946564,0.19083970000000003,-17.969465,9
0.06689453,-0.21704102,0.12536621,48.335876,0.8396947,-22.320610000000002,9
0.08105469,-0.2088623,0.12597656,29.732824,-1.2671756,-25.167938,9
0.08679199,-0.21600342,0.12896729,16.450382,-3.2595419999999997,-17.595419,9
0.08374023400000001,-0.22064209,0.12591553,16.389313,-3.4580152,-14.847328,9
0.08013916,-0.22174072,0.12835693,7.10687,-4.656488400000001,-9.938931,9
0.0793457,-0.22753906,0.1295166,9.839694999999999,-2.6641220000000003,-12.541985,9
0.08404541,-0.21813965,0.13366699,5.7557254,-0.5648854999999999,-6.6335880000000005,9
0.07788086,-0.22033691,0.13397217,0.71755725,0.610687,-5.8396945,9
0.09008789,-0.21398926,0.09234619,-1.1374046,2.1526718,-1.0458015,9
0.08276367,-0.21411133,0.13153076,-1.3358778999999998,2.8015267999999995,-3.6259542000000002,9
0.08337402,-0.21844482,0.12573242,3.076336,3.2290077,-3.8549618999999997,9
0.07769775400000001,-0.21893310000000002,0.13397217,2.2824428,-0.40458015,-4.5725193,9
0.07861328,-0.21655273,0.12243652,3.038168,0.122137405,-5.9007635,9
0.07891846,-0.21209717,0.12915039,3.2137403,-0.7251908,-4.847328,9
0.08081055,-0.21697998,0.12261963,3.4503817999999997,0.7099236999999999,-6.091603299999999,9
0.08703613,-0.21490479,0.12750244,0.99236643,1.3969465,-5.7938933,9
0.07318115,-0.215271,0.13330078,3.3129769999999996,0.77862597,-5.053435299999999,9
0.08532715,-0.21795654,0.12475586,0.5496183000000001,1.091603,-4.885496,9
0.07952881,-0.21911621,0.12475586,2.8778627,2.6183207000000004,-1.8396946,9
0.07873535,-0.21435547,0.12695312,1.9465648999999998,1.5038168,-2.0458016,9
0.08264160000000001,-0.22076416,0.1282959,0.6793893,1.7251908999999999,-2.7251909,9
0.08258057,-0.21221924,0.12835693,2.2137403,0.67175573,-3.961832,9
0.07513428,-0.21978760000000003,0.12994385,1.5725191,0.6335878,-4.1755724,9
0.08026123,-0.21520996,0.12896729,2.5419848,2.183206,-4.885496,9
0.07873535,-0.21459961,0.12738037,4.5496182,0.84732825,-3.648855,9
0.08093262,-0.21624756,0.13031006,1.4961832,1.6183206,-2.2900763,9
0.08392334,-0.21539307,0.14459229,1.1297709999999999,2.4351146,-3.0229008,9
0.083862305,-0.20947266,0.12243652,0.8778626,2.1603053,-3.5572519999999996,9
0.07940674,-0.21166992,0.1303711,1.0458015,1.1374046,-6.3129773,9
0.07434082,-0.21221924,0.13311768,0.18320611,0.18320611,-4.1984735,9
0.07922363,-0.21850586,0.13092041,2.3511450000000003,-0.33587787,-5.946564700000001,9
0.08453369,-0.22094727,0.1328125,0.78625953,-0.79389316,-5.3587785000000006,9
0.08325195,-0.21429443,0.1270752,2.7251909,-0.4427481,-4.076336,9
0.078125,-0.22070312,0.12719727,-1.3664121999999999,0.8015267,-4.366412,9
0.07867432,-0.21435547,0.12597656,0.20610687,0.129771,-4.053435299999999,9
0.08557129,-0.21240234,0.10369873,-0.2519084,2.8015267999999995,0.47328246,9
0.07482910000000001,-0.21166992,0.13305664,0.8396947,0.099236645,-4.763358599999999,9
0.08258057,-0.21606445,0.13446045,-1.0229008,1.5343511,-2.534351,9
0.08331299,-0.21636963,0.13122559,1.5267175,0.045801528,-2.1221373,9
0.08160400400000001,-0.21203613,0.1262207,0.8167939000000001,-0.099236645,-5.015267400000001,9
0.07495117,-0.21105957,0.12145996,2.0458016,1.1297709999999999,-4.236641400000001,9
0.089782715,-0.21374512,0.12713623,7.0229006,1.8167938999999997,-6.1984735,9
0.07763672,-0.21435547,0.12921143,6.2519083,-0.061068702,-7.961832000000001,9
0.07989502,-0.21984863,0.12365723,-0.26717559,0.78625953,-7.3816795,9
0.074157715,-0.21588135,0.12774658,4.1679387000000006,0.6183206,-4.8778625,9
0.080200195,-0.20782470000000003,0.12921143,3.038168,0.9160305000000001,-6.0076336999999995,9
0.09045410000000001,-0.20904541,0.14147949,-0.022900764,1.3358778999999998,-3.5419848,9
0.07165527,-0.22106934,0.12384033,-1.1679389999999998,3.6641220000000003,-4.396946400000001,9
0.08605957,-0.20935059,0.13348389,-0.5496183000000001,2.9160306,-3.1526718,9
0.09423828,-0.21826172,0.13623047,0.40458015,1.5801526000000001,-3.1145039,9
0.08172607400000001,-0.21881104,0.13708496,1.0,1.6946564999999998,-3.6946564,9
0.078186035,-0.21154785,0.13793945,0.8015267,2.9007633,-3.8091602,9
0.07971191400000001,-0.215271,0.13604736,1.9847328999999998,1.389313,-4.2748094000000005,9
0.07702637,-0.20697021,0.12432861,0.39694658,2.0839694,-3.6793892,9
0.07904053,-0.20843506,0.13098145,1.7557251,2.7175572,-4.2519083,9
0.07800293,-0.21228027,0.13232422,1.9923664,2.053435,-2.5419848,9
0.07373047,-0.21551514,0.13500977,1.0763359,1.389313,-4.671755999999999,9
0.07519531,-0.22521973,0.13964844,1.648855,2.4198472,-5.0839696,9
0.083984375,-0.21459961,0.13171387,-0.022900764,0.4274809,-3.3969467000000004,9
0.06842041,-0.22381592,0.12908936,0.22137405,3.2900763,-4.7480917,9
0.07989502,-0.21813965,0.13238525,0.8778626,1.2442749,-3.5801528,9
0.0758667,-0.21606445,0.13287354,-0.6335878,1.5725191,-2.9770992,9
0.07781982400000001,-0.21472168,0.13494873,2.6946564,1.9923664,-3.1374047000000003,9
0.07751465,-0.21160889,0.14160156,0.21374045,1.5496184,-3.7404580000000003,9
0.07946777,-0.21228027,0.13275146,0.5801527,0.97709924,-2.4045799999999997,9
0.08233642599999999,-0.21728516,0.13336182,1.2748091000000001,-0.10687023,-2.8625952999999997,9
0.08270264,-0.21606445,0.1361084,2.1450381000000003,0.5954198,-2.6183207000000004,9
0.08251953,-0.21130371,0.1328125,2.3358779999999997,0.5496183000000001,-3.3206108,9
0.08526611,-0.21520996,0.13763428,1.4656489,-0.08396947,-3.8396947,9
0.08258057,-0.21264648,0.13873291,3.053435,1.221374,-5.0992365,9
0.08215332,-0.21594238,0.12841797,-0.8015267,0.35114503,-4.335878,9
0.07043457,-0.21661377,0.13293457,0.20610687,0.35114503,-4.0839696000000005,9
0.07287598,-0.21203613,0.1375122,0.030534351,2.29771,-5.076336,9
0.08758545,-0.21392822,0.09844971,-1.0610687,3.778626,-0.52671754,9
0.06585693,-0.21282959,0.13513184,0.2977099,1.0305344,-4.366412,9
0.07897949,-0.21014404,0.12768555,2.2137403,1.8167938999999997,-4.038168,9
0.07971191400000001,-0.21484375,0.13806152,2.389313,-0.43511450000000007,-3.7557251000000003,9
0.07580566400000001,-0.21813965,0.13110352,1.3816794,3.5190839999999994,-1.70229,9
0.07971191400000001,-0.21740723,0.12939453,2.1755726,1.6183206,-4.763358599999999,9
0.08142089999999999,-0.21624756,0.13085938,1.1984733,0.7557252,-3.8854961,9
0.064941406,-0.22460938,0.12243652,0.8778626,0.8167939000000001,-3.4732822999999997,9
0.074279785,-0.21679688,0.13171387,0.79389316,1.4198473999999999,-4.2137402999999996,9
0.08850098,-0.21234131,0.0925293,-1.091603,2.870229,0.07633588,9
0.08044433599999999,-0.20910645,0.13110352,-0.007633588,-0.32061067,-3.4198472,9
0.07318115,-0.21752929999999995,0.13842773,1.1603054,0.24427481,-3.8015267999999995,9
0.08520508,-0.22009277,0.13458252,-0.90839696,1.4885496,-4.8015265,9
0.07464599599999999,-0.21105957,0.1307373,0.89312977,0.7557252,-4.1603055,9
0.07263183599999999,-0.21630860000000002,0.13006592,1.1526718,2.1145039,-6.625953999999999,9
0.07250976599999999,-0.21459961,0.13012695,-0.114503816,0.31297709999999995,-5.053435299999999,9
0.08111572,-0.21649169999999998,0.13726807,3.3206108,1.8320610000000002,-2.946565,9
0.07550049,-0.21588135,0.13232422,1.351145,0.3740458,-3.8549618999999997,9
0.08770752,-0.20965576,0.15826416,-0.15267175,1.8854961,-3.3206108,9
0.07446289,-0.22058105,0.13439941,1.0,1.5114504,-4.4351144,9
0.07836914,-0.20898438,0.13232422,-0.54198474,0.35877863,-3.793893,9
0.07720947,-0.21917725,0.13653564,-0.3740458,1.1908396,-4.5801525000000005,9
0.08251953,-0.21002197,0.13183594,0.73282444,1.1984733,-4.7099237,9
0.07623291,-0.22259521,0.13061523,1.3206106000000002,1.3053435,-3.129771,9
0.07507324,-0.20581055,0.12872314,-1.5725191,2.3740457999999998,-5.1221375,9
0.064941406,-0.21203613,0.12976074,1.4427481000000002,1.2137405,-4.7175574000000005,9
0.06829834,-0.21502686,0.13293457,0.015267176,1.4885496,-3.9160306000000005,9
0.0803833,-0.21020508,0.1116333,0.045801528,1.4961832,-0.15267175,9
0.07006836,-0.21191406,0.13256836,0.6870229,2.3053436,-4.8320612999999994,9
0.08026123,-0.21722412,0.12548828,1.7099236,0.38167940000000006,-4.1603055,9
0.08111572,-0.21960449,0.12554932,1.5267175,0.9389313,-5.8396945,9
0.076660156,-0.22125244,0.13415527,0.97709924,2.7175572,-4.1374044,9
0.06958008,-0.21484375,0.14074707,1.4656489,0.9465648999999999,-5.0458016,9
0.07647705,-0.21343994,0.124938965,0.65648854,1.8244275,-3.4580152,9
0.08142089999999999,-0.21752929999999995,0.14508057,1.389313,1.4961832,-4.984732599999999,9
0.07843017599999999,-0.21679688,0.13922119,-0.52671754,1.6412214,-4.7709923,9
0.08074951,-0.21466064,0.1359253,-0.18320611,0.6870229,-5.778626,9
0.07067871,-0.21734619,0.13684082,-0.52671754,1.1374046,-3.091603,9
0.07873535,-0.21533203,0.13464355,1.7938931,-0.9160305000000001,-4.7480917,9
0.08093262,-0.21649169999999998,0.13775635,0.740458,1.7633588,-3.8473281999999998,9
0.07543945,-0.20727539,0.13708496,-0.32061067,-0.52671754,-4.1374044,9
0.066345215,-0.21502686,0.13256836,1.0152671,1.9847328999999998,-2.2595419999999997,9
0.07910156,-0.21691895,0.14215088,1.1832061000000003,1.2748091000000001,-6.59542,9
0.08233642599999999,-0.21374512,0.13311768,0.32824427,0.96183205,-4.7862597000000004,9
0.07708739999999999,-0.21264648,0.14251709,0.52671754,1.5496184,-5.0,9
0.08532715,-0.21496582,0.12872314,0.5954198,1.3129771000000001,-3.1374047000000003,9
0.07269287,-0.21606445,0.13616943,0.8854962,1.961832,-6.900763499999999,9
0.078308105,-0.21130371,0.13110352,-0.31297709999999995,1.3053435,-4.10687,9
0.07672119,-0.21563720000000003,0.13824463,-0.22900763,1.2442749,-4.412214,9
0.082214355,-0.2208252,0.14178467,0.33587787,2.4732822999999997,-4.1221375,9
0.07336426,-0.21722412,0.13372803,1.2824427,1.7786259999999998,-4.2290077,9
0.07879639,-0.21203613,0.14685059,2.076336,1.8167938999999997,-5.0076336999999995,9
0.08044433599999999,-0.21429443,0.1338501,1.0152671,1.648855,-2.3816792999999996,9
0.07543945,-0.21997070000000005,0.14178467,-0.64122134,0.77862597,-4.114504,9
0.076171875,-0.21704102,0.13256836,0.6870229,0.03816794,-3.908397,9
0.08135986,-0.21557617,0.13934326,0.32061067,0.8015267,-4.335878,9
0.07543945,-0.21368408,0.13763428,0.0,-0.15267175,-4.7709923,9
0.07128906,-0.21490479,0.13323975,-0.32061067,1.3969465,-4.068702,9
0.07910156,-0.21350098,0.12664795,-0.08396947,1.9923664,-3.6946564,9
0.07366943,-0.21606445,0.13677979,0.21374045,1.3969465,-2.870229,9
0.07983398400000001,-0.21679688,0.13476562,-0.061068702,1.4580153,-3.8091602,9
0.08081055,-0.20666504,0.12713623,0.35877863,1.2900764,-2.5648854,9
0.07879639,-0.2166748,0.13262939999999998,0.40458015,1.5954198999999998,-3.832061,9
0.07495117,-0.22070312,0.13446045,0.22900763,-0.07633588,-1.8931297999999999,9
0.07611084,-0.21496582,0.13653564,0.54198474,-0.6259541999999999,-4.183206,9
0.0793457,-0.21911621,0.13769531,0.79389316,3.2366412,-4.7022900000000005,9
0.07421875,-0.21722412,0.13537598,1.5343511,-0.053435113,-3.206107,9
0.08129883,-0.21478271,0.13494873,1.3664121999999999,0.86259544,-5.10687,9
0.08392334,-0.21508789,0.13336182,-0.29007635,0.66412216,-4.7251905999999995,9
0.07281494,-0.21600342,0.13134766,-0.03816794,1.0,-2.6335877999999995,9
0.072387695,-0.21990967,0.12756348,1.0458015,0.38931298,-3.8244274,9
0.06945801,-0.21850586,0.13415527,0.9160305000000001,-0.55725193,-3.7480917000000002,9
0.07519531,-0.20916748,0.13519287,1.2671756,1.2671756,-3.3893129999999996,9
0.07543945,-0.21343994,0.14172363,0.259542,1.7404580000000003,-3.946565,9
0.07916260000000001,-0.21008301,0.14215088,1.1068702,1.2366412,-4.1297708,9
0.07751465,-0.21606445,0.13183594,2.5954200000000003,0.6793893,-2.961832,9
0.08514404,-0.21673584,0.13195801,0.9541985000000001,2.129771,-3.6564887,9
0.07482910000000001,-0.21472168,0.12988281,2.3664122000000005,0.79389316,-4.7099237,9
0.0803833,-0.21978760000000003,0.13226318,2.183206,1.1679389999999998,-5.7557254,9
0.08374023400000001,-0.21582031,0.13232422,1.9007633999999998,0.73282444,-5.4351144,9
0.088378906,-0.21630860000000002,0.13800049,0.46564886,0.28244275,-4.374046,9
0.08160400400000001,-0.21173096,0.13153076,0.8702290000000001,-0.45038167,-4.0610685,9
0.0793457,-0.21142578,0.1270752,-0.19083970000000003,1.4122137,-6.1984735,9
0.08764648400000001,-0.21002197,0.13092041,-2.2519082999999998,2.5038167999999996,-2.5267177000000003,9
0.074279785,-0.21099854,0.13317871,-0.08396947,0.07633588,-3.4885497,9
0.078063965,-0.21343994,0.13684082,0.9541985000000001,-0.89312977,-5.2824425999999995,9
0.07873535,-0.22027588,0.12713623,-0.97709924,0.47328246,-3.908397,9
0.074157715,-0.21209717,0.13275146,1.8931297999999999,-0.38167940000000006,-4.40458,9
0.07739258,-0.21673584,0.12640381,0.8396947,1.9770991999999998,-4.557252,9
0.07897949,-0.22039795,0.12884521,-0.08396947,-0.259542,-3.7251909,9
0.078308105,-0.21472168,0.1317749,0.022900764,0.46564886,-4.4961834000000005,9
0.07635498,-0.21893310000000002,0.13757324,0.08396947,1.6335878000000001,-5.816794,9
0.08508301,-0.21679688,0.11499023400000001,-0.8549618,3.4274809999999998,-2.1221373,9
0.074401855,-0.21569824,0.13793945,-0.122137405,0.79389316,-5.091603299999999,9
0.07385254,-0.21636963,0.1328125,0.83206105,-0.36641222,-4.1297708,9
0.07574463,-0.21289062,0.1430664,1.3129771000000001,2.2366412,-5.7862597000000004,9
0.08270264,-0.21368408,0.13049316,2.3206108,0.053435113,-2.6793892,9
0.08142089999999999,-0.2144165,0.14349365,1.7633588,-0.2977099,-5.6488547,9
0.08288574,-0.21838379,0.13342285,0.08396947,1.5801526000000001,-4.984732599999999,9
0.07073974599999999,-0.21490479,0.13317871,2.1908397999999996,2.1374047000000003,-4.1297708,9
0.08032226599999999,-0.21240234,0.1383667,0.129771,-0.15267175,-4.7480917,9
0.07824707,-0.21600342,0.13238525,0.6335878,0.9160305000000001,-5.259542,9
0.08276367,-0.21118164,0.13842773,0.015267176,2.534351,-3.3129769999999996,9
0.07513428,-0.21429443,0.13250732,2.1908397999999996,0.6183206,-4.7328243,9
0.08654785,-0.21850586,0.13128662,0.519084,1.8549619,-5.335878,9
0.07989502,-0.21820068,0.13757324,-1.1068702,1.1221374,-5.473282299999999,9
0.07641601599999999,-0.21948242,0.13122559,0.4274809,-0.49618322,-6.1755724,9
0.07458496,-0.21166992,0.13342285,0.6793893,1.648855,-4.3816795,9
0.08013916,-0.21740723,0.13153076,-0.70229006,-0.259542,-4.3511453,9
0.08532715,-0.21673584,0.13934326,0.48091602,-0.67175573,-7.2137402999999996,9
0.08068848,-0.21368408,0.13269043,-0.55725193,-0.610687,-4.7022900000000005,9
0.080200195,-0.20959473,0.13336182,0.6946565,0.26717559,-4.374046,9
0.07824707,-0.21551514,0.13348389,1.6412214,1.6183206,-4.8396945,9
0.07891846,-0.21710205,0.13775635,1.5801526000000001,0.5801527,-5.091603299999999,9
0.07989502,-0.21978760000000003,0.13104248,1.3664121999999999,1.8320610000000002,-4.5038165999999995,9
0.08483887,-0.21514893,0.137146,0.045801528,1.5343511,-6.091603299999999,9
0.07684326,-0.21661377,0.13543701,-0.7099236999999999,0.8091603,-6.396946400000001,9
0.07537842,-0.21142578,0.13885498,1.1526718,1.3206106000000002,-3.0610687999999997,9
0.08026123,-0.21209717,0.13464355,0.26717559,0.83206105,-4.0076336999999995,9
0.07519531,-0.20648193,0.14154053,1.221374,0.9236641,-2.5954200000000003,9
0.07397461,-0.21307373,0.13262939999999998,-1.5267175,0.32061067,-4.1679387000000006,9
0.07092285,-0.21313477,0.13555908,0.18320611,0.89312977,-2.3282442000000003,9
0.08422851599999999,-0.22039795,0.13018799,1.7251908999999999,1.9694656000000004,-3.1068702,9
0.0859375,-0.21203613,0.12976074,1.5267175,2.4580152,-4.1297708,9
0.068847656,-0.22381592,0.12878418,1.0305344,2.7175572,-3.534351,9
0.08685303,-0.21325684,0.13513184,1.8015267,0.26717559,-2.3511450000000003,9
0.07989502,-0.21008301,0.13330078,0.57251906,0.3740458,-4.8625956,9
0.08514404,-0.21429443,0.13488770000000003,1.389313,0.23664123,-5.9389315,9
0.07611084,-0.21130371,0.13018799,0.53435117,2.465649,-3.9847328999999996,9
0.07171631,-0.21594238,0.13977051,-1.70229,1.1221374,-4.3816795,9
0.08483887,-0.20904541,0.09808349599999999,-1.038168,3.6335877999999995,-0.23664123,9
0.07824707,-0.2109375,0.13671875,-0.32061067,0.66412216,-3.3740457999999998,9
0.07940674,-0.21185303,0.13787842,-0.96183205,-0.099236645,-2.9312978,9
0.07122803,-0.21618652,0.13092041,-0.259542,0.66412216,-3.6030532999999996,9
0.07922363,-0.21209717,0.13079834,-1.8473282,0.7480916,-5.7862597000000004,9
0.07727051,-0.20550537,0.13476562,0.9160305000000001,0.4427481,-4.091603299999999,9
0.07733154,-0.21502686,0.13214111,-0.091603056,3.1603053,-6.0458016,9
0.07769775400000001,-0.21508789,0.13616943,0.20610687,1.2900764,-4.908396700000001,9
0.07293701,-0.21484375,0.13159179999999998,1.2519083999999998,1.9770991999999998,-3.3587787000000002,9
0.08947754,-0.21228027,0.10015869,-1.6793894,4.8244276,-1.0305344,9
0.07458496,-0.2154541,0.13049316,0.77099234,0.007633588,-4.6412214999999994,9
0.07324219,-0.22418213,0.12335205,1.7938931,1.4580153,-4.1603055,9
0.07647705,-0.21624756,0.12799072,-0.8702290000000001,0.8091603,-5.2671757,9
0.07537842,-0.21386719,0.12939453,-0.66412216,0.79389316,-4.2900763,9
0.078063965,-0.21044922,0.13317871,2.1908397999999996,0.6793893,-5.1297708,9
0.08087158,-0.21887207,0.13800049,2.129771,0.9694656999999999,-5.809159999999999,9
0.07861328,-0.21270752,0.12908936,1.4885496,0.2519084,-4.809159999999999,9
0.08227539,-0.21289062,0.12579346,1.5648855,1.4732825,-4.4274807,9
0.0803833,-0.21771239999999997,0.12261963,-0.77099234,1.8320610000000002,-2.557252,9
0.08288574,-0.21417236,0.13415527,0.122137405,1.6564884999999998,-5.7251905999999995,9
0.08111572,-0.215271,0.13079834,-0.43511450000000007,1.0610687,-3.870229,9
0.07446289,-0.21234131,0.13134766,0.55725193,1.038168,-3.7557251000000003,9
0.07495117,-0.21105957,0.13739014,0.07633588,-0.19083970000000003,-3.5877862,9
0.07434082,-0.21356201,0.14031982,-2.183206,2.7175572,-4.6412214999999994,9
0.07373047,-0.21307373,0.1295166,0.10687023,1.5572518999999998,-4.4198474999999995,9
0.07733154,-0.21807861,0.13647461,0.259542,1.6870228999999999,-4.10687,9
0.07250976599999999,-0.21716309,0.13952637,0.4427481,0.53435117,-5.4351144,9
0.08624267599999999,-0.21276855,0.13873291,-3.0687022,4.1221375,-0.9236641,9
0.0703125,-0.21942139,0.12866211,-2.0992367,1.1450381,-4.809159999999999,9
0.08404541,-0.21844482,0.13464355,-0.5801527,3.053435,-3.2442749,9
0.07305908,-0.21417236,0.14489746,0.015267176,2.6259542000000002,-3.1145039,9
0.074401855,-0.21630860000000002,0.14239502,-0.41984734,3.2671757,-2.6717557999999997,9
0.07073974599999999,-0.21893310000000002,0.1395874,-8.068703,2.9541984,-1.9923664,9
0.07672119,-0.22790527,0.11560058599999999,2.9541984,-0.20610687,-3.0152671000000004,9
0.08270264,-0.20294189999999998,0.13739014,14.885496,2.2137403,-6.152672,9
0.07269287,-0.2109375,0.14019775,1.6717557,-6.6793895,-3.8625953,9
0.09008789,-0.22320557,0.13586426,13.114504,-1.1603054,4.763358599999999,9
0.07208252,-0.21838379,0.13262939999999998,-0.22137405,-2.6488549999999997,5.2900763,9
0.07684326,-0.22467041,0.12579346,6.7557254,1.0305344,-3.3435113,9
0.072265625,-0.20434570000000002,0.14300537,11.534351,4.5801525000000005,-3.4274809999999998,9
0.08117676,-0.21563720000000003,0.13537598,5.7862597000000004,2.5038167999999996,-3.6030532999999996,9
0.07318115,-0.21636963,0.13348389,10.320611,2.9389312000000003,-4.236641400000001,9
0.072143555,-0.21887207,0.13317871,10.328244,-0.18320611,-8.267176,9
0.07922363,-0.21478271,0.14404297,8.641221,-1.9541985,-2.312977,9
0.07183838,-0.21618652,0.15106201,-9.129771,-6.0610685,-5.1603055,9
0.08343506,-0.21942139,0.14141846,-5.4656487,-2.7099237,-3.3816792999999996,9
0.072265625,-0.20263672,0.15875244,-11.549619,-0.015267176,-0.5801527,9
0.08306885,-0.22100830000000002,0.13641357,-21.236639999999998,-3.8854961,0.5496183000000001,9
0.08404541,-0.23248291,0.13208008,-1.7251908999999999,0.9541985000000001,-2.221374,9
0.07318115,-0.20324707,0.14703369,-6.190840000000001,-0.6946565,-3.3893129999999996,9
0.06817627,-0.22186279999999997,0.12542725,-24.435114000000002,-5.885496,-1.8473282,9
0.07592773400000001,-0.22668457,0.12646484,-11.9007635,-5.0992365,-3.70229,9
0.07843017599999999,-0.21417236,0.1307373,-1.4427481000000002,-1.3282443000000002,-3.6106870000000004,9
0.07220459,-0.21893310000000002,0.13757324,-2.7633588,-2.5267177000000003,-3.6106870000000004,9
0.07525635,-0.21447754,0.12097168,-1.9236640999999999,-1.5267175,-4.8625956,9
0.08068848,-0.21575928,0.12365723,-7.335878,-1.4885496,-5.5725193,9
0.07287598,-0.22937012,0.12048339999999998,-4.7099237,-1.648855,-7.465648700000001,9
0.079589844,-0.21911621,0.12377930000000001,-3.4503817999999997,-3.8167940000000002,-5.374046,9
0.07348633,-0.22155762,0.12573242,-1.0763359,-2.6793892,-5.40458,9
0.07598877,-0.21899414,0.1295166,0.740458,-0.3740458,-5.015267400000001,9
0.07977295,-0.22198486,0.12243652,-4.091603299999999,-3.0687022,-3.7328242999999994,9
0.07745361,-0.21063232,0.12591553,-1.9847328999999998,2.1755726,-2.778626,9
0.07696533,-0.22033691,0.12567139,-13.0,1.6030535,-2.5496182000000003,9
0.07281494,-0.22607422,0.12078857400000001,-4.091603299999999,1.9847328999999998,-4.5038165999999995,9
0.07141113,-0.21636963,0.12554932,-14.335876999999998,-0.97709924,-2.5267177000000003,9
0.083984375,-0.22009277,0.08087158,-14.519084,0.9541985000000001,0.045801528,9
0.06872558599999999,-0.22277832,0.10888672,-3.8854961,-0.28244275,-2.6335877999999995,9
0.07495117,-0.23254395,0.11462402,-3.3435113,2.6183207000000004,-4.8625956,9
0.06781006,-0.22125244,0.12573242,-0.89312977,1.9389313000000001,-3.3969467000000004,9
0.07635498,-0.22155762,0.11486816400000001,-6.4961834000000005,-1.0610687,-5.946564700000001,9
0.08258057,-0.22790527,0.106933594,-3.8549618999999997,1.7938931,-6.0305343,9
0.0758667,-0.21783447,0.119140625,0.8091603,0.77862597,-4.656488400000001,9
0.06927489999999999,-0.22277832,0.11315918,-0.26717559,1.259542,-8.229008,9
0.08172607400000001,-0.22058105,0.11486816400000001,1.9389313000000001,2.0687022,-6.4961834000000005,9
0.08239746,-0.22418213,0.08514404,-1.610687,1.8167938999999997,-1.1908396,9
0.06781006,-0.22125244,0.11773682,1.4198473999999999,0.9389313,-4.5343513,9
0.07476807,-0.21490479,0.12072754,1.1984733,2.0839694,-4.89313,9
0.074279785,-0.21954346,0.12145996,-0.9236641,0.15267175,-4.1755724,9
0.07861328,-0.22418213,0.119140625,-1.4961832,1.3053435,-3.29771,9
0.07684326,-0.22100830000000002,0.11999512,1.2290076,-0.49618322,-2.923664,9
0.08013916,-0.22180176,0.113464355,-0.6488550000000001,2.5267177000000003,-3.7328242999999994,9
0.0881958,-0.22351074,0.11285400400000001,-0.53435117,-0.5648854999999999,-5.0076336999999995,9
0.07562256,-0.22607422,0.12371826,-0.2519084,-0.49618322,-3.6870230000000004,9
0.08636474599999999,-0.21661377,0.11633301,-2.6412212999999998,0.8549618,-3.4885497,9
0.07476807,-0.22290039,0.115112305,1.2366412,-0.9465648999999999,-3.648855,9
0.07647705,-0.22064209,0.115722656,2.5801528,4.3816795,-4.343511599999999,9
0.07702637,-0.22094727,0.12231445,-1.5419847,1.5725191,-3.076336,9
0.07885742,-0.22296143,0.11505127,0.8396947,0.38931298,-4.053435299999999,9
0.074035645,-0.2208252,0.11883545,0.8778626,1.6183206,-4.9541984,9
0.082214355,-0.22180176,0.11688232400000001,-1.4427481000000002,1.3206106000000002,-5.763358599999999,9
0.07397461,-0.22412110000000002,0.12176514,1.6946564999999998,1.4732825,-2.70229,9
0.07098389,-0.22833252,0.12109375,-0.7251908,2.3206108,-2.7557251,9
0.08483887,-0.22601318,0.12213135,-2.6946564,4.587786,0.10687023,9
0.07843017599999999,-0.22363281,0.113342285,-2.0229008,-0.114503816,-4.3893127,9
0.078125,-0.22180176,0.1161499,-5.2442746,0.70229006,-4.8244276,9
0.0758667,-0.21966553,0.11633301,4.2519083,5.7480917,-2.1374047000000003,9
0.06530762,-0.22497559,0.12408447,-4.183206,2.3816792999999996,-5.1297708,9
0.07507324,-0.22216797,0.11486816400000001,-0.22137405,3.6641220000000003,-3.908397,9
0.07159424,-0.22229004,0.12188721,-2.2595419999999997,2.1603053,-5.526717700000001,9
0.07965088,-0.22515869,0.11553955,-1.5954198999999998,2.816794,-5.190840000000001,9
0.07189941400000001,-0.22161865,0.11761474599999999,-0.4274809,2.8091602000000004,-3.3282442000000003,9
0.08288574,-0.22869873,0.117004395,-0.5954198,1.4045801000000002,-4.5496182,9
0.07952881,-0.22302246,0.12426758,0.053435113,1.7862595000000001,-3.1068702,9
0.08148193,-0.22436523,0.113464355,0.8091603,1.5419847,-4.259542,9
0.081970215,-0.22186279999999997,0.11560058599999999,0.54198474,3.6793892,-1.8854961,9
0.074035645,-0.22906494,0.11517334,3.9923663,3.5877862,-4.2137402999999996,9
0.07501221,-0.22589111,0.11621094,11.167939,6.931298,-2.4885497,9
0.07476807,-0.22753906,0.11602783,11.381680000000001,7.5038165999999995,-3.3893129999999996,9
0.06713867,-0.21832275,0.12792969,10.656488000000001,7.847328,-4.4274807,9
0.08245849599999999,-0.21990967,0.12219238,16.312977,8.236641,-4.366412,9
0.08496094,-0.21459961,0.12377930000000001,9.114504,5.3511453,-4.4656487,9
0.07336426,-0.21972656,0.11859131,2.2824428,2.4198472,-4.908396700000001,9
0.0725708,-0.21691895,0.11834717,5.6488547,4.908396700000001,-5.236641400000001,9
0.07305908,-0.22729492,0.11480713,0.9694656999999999,1.8931297999999999,-2.9694657,9
0.075683594,-0.21813965,0.12329101599999999,6.9770994,6.221374,-2.908397,9
0.07836914,-0.22039795,0.12860107,4.8244276,3.4503817999999997,-4.5725193,9
0.06549072,-0.21704102,0.1296997,5.5038165999999995,5.656488400000001,-4.2671757,9
0.068359375,-0.21936035,0.12036133,1.9312977,2.9160306,-3.4274809999999998,9
0.07318115,-0.2208252,0.11907959,3.961832,2.427481,-2.0229008,9
0.06738281,-0.22290039,0.11907959,4.6946564,2.1221373,-4.480916000000001,9
0.06860351599999999,-0.22491455,0.12420654,0.9160305000000001,1.4961832,-2.9541984,9
0.07348633,-0.22198486,0.12939453,1.6564884999999998,-0.27480915,-2.7099237,9
0.07476807,-0.22247314,0.12426758,0.7480916,2.3511450000000003,-2.519084,9
0.07696533,-0.21813965,0.12628174,2.4503817999999997,2.8396947,-3.206107,9
0.076660156,-0.21600342,0.12896729,0.045801528,0.90839696,-3.870229,9
0.0625,-0.22100830000000002,0.12750244,1.9465648999999998,2.091603,-2.6717557999999997,9
0.07476807,-0.22045898,0.12731934,-1.5801526000000001,2.5114503,-3.1984732000000005,9
0.06329346,-0.22497559,0.12341308599999999,-0.7633588000000001,1.3206106000000002,-4.3587785000000006,9
0.07550049,-0.21063232,0.13085938,-1.1450381,1.2519083999999998,-4.0839696000000005,9
0.06713867,-0.21728516,0.13043213,-1.7099236,1.1068702,-2.465649,9
0.08117676,-0.21728516,0.09826660000000001,-1.1450381,5.1755724,-0.8702290000000001,9
0.07342529,-0.21710205,0.12939453,-1.9389313000000001,0.6183206,-4.091603299999999,9
0.06744385,-0.21850586,0.121154785,-0.41984734,0.14503817,-4.89313,9
0.07574463,-0.21984863,0.12835693,-1.0992366000000002,0.54198474,-5.603053599999999,9
0.07293701,-0.21606445,0.12145996,3.3282442000000003,0.9389313,-5.9694657,9
0.08734131,-0.22021484,0.13079834,1.0610687,1.4732825,-3.70229,9
0.07006836,-0.22558594,0.11993408,-0.15267175,1.4961832,-4.328244000000001,9
0.078125,-0.22283936,0.13195801,0.9847328000000002,1.8167938999999997,-4.7557254,9
0.072387695,-0.22210693,0.12182617,-2.312977,2.6793892,-5.526717700000001,9
0.06970215,-0.22302246,0.13024902,0.84732825,0.9541985000000001,-6.6793895,9
0.07452392599999999,-0.21795654,0.12841797,-1.1526718,0.38167940000000006,-3.8091602,9
0.07098389,-0.22375488,0.13171387,-0.64122134,0.38931298,-5.328244000000001,9
0.07452392599999999,-0.22009277,0.12658691,0.114503816,-1.6412214,-6.7557254,9
0.06896973,-0.22143555,0.13079834,1.9160305,1.2366412,-3.2900763,9
0.07733154,-0.22198486,0.12518310000000002,-1.0,1.4656489,-4.5801525000000005,9
0.061157227,-0.22363281,0.13238525,1.7938931,3.6564887,-5.587786,9
0.06585693,-0.21826172,0.13171387,-2.0839694,1.8091604,-4.2061067,9
0.0715332,-0.2208252,0.12017822,-0.519084,-0.9312976999999999,-3.3740457999999998,9
0.07745361,-0.21789551,0.12432861,0.07633588,1.4045801000000002,-1.7557251,9
0.068481445,-0.21929932,0.12988281,-0.9694656999999999,0.8778626,-4.8396945,9
0.07324219,-0.22442627,0.13574219,2.1145039,1.091603,-3.6564887,9
0.07385254,-0.21966553,0.12664795,-0.78625953,-0.8549618,-2.206107,9
0.074279785,-0.21875,0.12518310000000002,1.1450381,0.9389313,-6.236641400000001,9
0.07244873,-0.22192383,0.12976074,1.7633588,1.6183206,-6.259542,9
0.072753906,-0.22174072,0.13092041,0.66412216,0.53435117,-4.923664,9
0.06781006,-0.21331787,0.13116455,0.2977099,0.41221374,-4.068702,9
0.07104492,-0.22174072,0.12957764,1.8931297999999999,0.6488550000000001,-5.6183205,9
0.07489014,-0.21936035,0.14135742,1.6717557,-0.022900764,-3.9160306000000005,9
0.07299805,-0.22106934,0.13409424,0.5038168,0.96183205,-4.8702292,9
0.07055664,-0.21484375,0.13122559,-2.091603,0.83206105,-4.2748094000000005,9
0.064453125,-0.22259521,0.12677002,-1.389313,-0.07633588,-4.2748094000000005,9
0.07531738,-0.22320557,0.13067627,0.7480916,0.9160305000000001,-4.931298,9
0.074401855,-0.21942139,0.12780762,3.3969467000000004,-0.7099236999999999,-3.0305343,9
0.08050537,-0.21606445,0.12359619,0.27480915,1.1755725000000001,-4.2061067,9
0.072387695,-0.222229,0.12530518,0.9389313,-0.47328246,-5.7251905999999995,9
0.07171631,-0.21795654,0.12188721,-0.2977099,-1.2366412,-5.190840000000001,9
0.07684326,-0.21942139,0.121032715,4.374046,-0.2519084,-7.9847326,9
0.075683594,-0.22210693,0.13354492,4.1374044,0.90839696,-4.8244276,9
0.07623291,-0.21594238,0.1328125,-0.15267175,-3.183206,-7.3587785000000006,9
0.06756592,-0.21484375,0.115722656,2.3740457999999998,-3.7099237,-4.809159999999999,9
0.07470703,-0.22662354,0.12957764,7.931298,-1.1679389999999998,-5.3129773,9
0.08013916,-0.21856689999999998,0.1328125,8.862596,-0.114503816,-3.9770992,9
0.076049805,-0.21728516,0.12927246,-0.15267175,0.13740458,-5.7557254,9
0.07397461,-0.21807861,0.12054443,-0.26717559,-0.114503816,-6.1297708,9
0.07519531,-0.222229,0.12774658,4.1755724,0.8854962,-4.053435299999999,9
0.07318115,-0.2166748,0.13220215,4.183206,1.0,-4.40458,9
0.07202148400000001,-0.21801758,0.13476562,-0.10687023,1.2061069,-4.6412214999999994,9
0.075683594,-0.22674560000000002,0.12084961,-0.22137405,-0.129771,-2.7404580000000003,9
0.079589844,-0.21661377,0.13201904,0.8091603,0.99236643,-4.145038,9
0.07800293,-0.22430419999999998,0.12152099599999999,0.053435113,2.4351146,-5.3053436,9
0.07244873,-0.21569824,0.13482666,2.8854961,1.9541985,-3.7175572,9
0.07720947,-0.21875,0.12652588,2.9389312000000003,2.610687,-4.038168,9
0.07171631,-0.21734619,0.12713623,2.129771,2.4503817999999997,-4.603053599999999,9
0.07781982400000001,-0.21832275,0.13250732,2.0610688,0.65648854,-5.6106873,9
0.07556152,-0.21905518,0.12561035,0.29007635,1.3129771000000001,-5.2824425999999995,9
0.06591797,-0.22198486,0.13208008,2.2671757,1.2061069,-4.9389315,9
0.07128906,-0.21618652,0.12872314,2.2366412,0.48854962,-2.557252,9
0.0793457,-0.21826172,0.12939453,2.2595419999999997,2.8396947,-3.3358779999999997,9
0.0793457,-0.21215820000000005,0.12719727,2.3969467,3.1603053,-5.4885497,9
0.07220459,-0.22113037,0.13171387,0.8167939000000001,0.4274809,-3.5725190000000002,9
0.06677246,-0.22021484,0.12835693,0.39694658,1.1755725000000001,-4.8244276,9
0.07824707,-0.2208252,0.12988281,1.0229008,1.7404580000000003,-1.8396946,9
0.07342529,-0.2232666,0.12738037,3.1603053,-0.33587787,-3.4122138,9
0.07104492,-0.21887207,0.13293457,1.8396946,0.3053435,-4.3206105,9
0.06915283,-0.21490479,0.12890625,-0.10687023,1.3435115,-3.5190839999999994,9
0.07891846,-0.21362305,0.10675049,1.5267175,3.2748091,-0.49618322,9
0.07592773400000001,-0.21850586,0.13287354,1.3740458,0.6259541999999999,-3.167939,9
0.07495117,-0.21435547,0.12939453,0.9694656999999999,0.16793893,-4.923664,9
0.07299805,-0.21777344,0.13159179999999998,-0.122137405,0.5496183000000001,-6.3893127,9
0.06878662,-0.21752929999999995,0.13171387,1.4885496,0.21374045,-5.6106873,9
0.07574463,-0.21734619,0.13195801,0.5496183000000001,0.27480915,-3.5725190000000002,9
0.068847656,-0.22064209,0.1328125,0.48091602,-0.3053435,-2.9694657,9
0.0725708,-0.21258545,0.1262207,0.31297709999999995,0.41984734,-2.6564887,9
0.061828613,-0.22015381,0.13354492,0.6488550000000001,0.57251906,-5.3587785000000006,9
0.06878662,-0.22003174,0.13671875,0.19847329,0.129771,-3.7633588,9
0.077941895,-0.22052002,0.13476562,1.4885496,1.2748091000000001,-3.40458,9
0.07110596,-0.21606445,0.14105225,1.1145038999999999,0.0,-5.1297708,9
0.07165527,-0.21569824,0.14038086,0.96183205,1.1068702,-5.7328243,9
0.08337402,-0.22198486,0.13513184,0.099236645,-1.7633588,-5.4351144,9
0.06512451,-0.21856689999999998,0.13287354,-0.8167939000000001,0.16030534,-3.7862597,9
0.06842041,-0.21728516,0.13616943,3.0076337000000004,1.2290076,-5.4961834000000005,9
0.07305908,-0.21789551,0.13043213,1.7938931,-0.8702290000000001,-6.3587785000000006,9
0.07312012,-0.22778320000000005,0.13000488,0.5114504,-0.9236641,-3.6870230000000004,9
0.07940674,-0.21801758,0.12762451,1.5954198999999998,0.48854962,-2.3969467,9
0.07659912,-0.22058105,0.13323975,4.557252,0.13740458,-2.7099237,9
0.06781006,-0.22277832,0.13635254,1.6717557,0.40458015,-2.5114503,9
0.06744385,-0.21551514,0.13262939999999998,2.816794,-0.48091602,-3.0992367,9
0.074035645,-0.21887207,0.13031006,2.7709923,-1.3206106000000002,-5.4274807,9
0.08044433599999999,-0.22259521,0.13360596,-0.9465648999999999,-0.16030534,-2.4961832000000004,9
0.08502197,-0.20898438,0.14007568,-10.442748,-1.3664121999999999,0.90076333,9
0.07159424,-0.22094727,0.12670898,-20.587785999999998,-7.3664119999999995,-3.0992367,9
0.067871094,-0.21582031,0.12072754,-0.16793893,0.5648854999999999,-2.4351146,9
0.07489014,-0.2286377,0.15301514,3.053435,-2.0458016,-2.6717557999999997,9
0.07623291,-0.21710205,0.13012695,10.755725,-0.6870229,-3.4122138,9
0.07318115,-0.22186279999999997,0.13488770000000003,1.5343511,-1.2442749,-4.4885497,9
0.07727051,-0.22033691,0.13110352,3.4274809999999998,-0.8396947,-1.4274809,9
0.06860351599999999,-0.21716309,0.13433838,2.3053436,1.3129771000000001,-2.8015267999999995,9
0.066467285,-0.21520996,0.13140869,0.71755725,0.5648854999999999,-1.4198473999999999,9
0.072753906,-0.21325684,0.128479,0.114503816,-0.86259544,-3.2366412,9
0.07366943,-0.21575928,0.12475586,-5.1984735,2.3740457999999998,-2.3511450000000003,9
0.07873535,-0.21447754,0.12774658,-5.854962,2.6030533,-4.0,9
0.06927489999999999,-0.21313477,0.11956787,-9.801527,4.40458,-8.748092,9
0.06939697,-0.22570801,0.12689209,-10.702291,-0.19847329,-6.4885497,9
0.070129395,-0.22369385,0.12597656,-8.122137,0.4274809,-5.0610685,9
0.07330322,-0.23083496,0.123168945,-2.5801528,1.648855,-3.6717557999999997,9
0.08062744,-0.21673584,0.12475586,0.08396947,3.40458,-4.984732599999999,9
0.07922363,-0.21539307,0.12579346,0.47328246,1.8015267,-9.0,9
0.07550049,-0.21972656,0.12017822,-0.78625953,-0.16793893,-5.6946564,9
0.06860351599999999,-0.22497559,0.12683105,-2.870229,-0.58778626,-6.1221375,9
0.07336426,-0.21295166,0.13122559,-3.1221373,2.053435,-3.6259542000000002,9
0.072753906,-0.22070312,0.12017822,-7.2671757,1.038168,-3.778626,9
0.07519531,-0.22460938,0.11682129,-2.9847328999999996,1.8091604,-5.038168,9
0.07562256,-0.22283936,0.11663818,-0.83206105,1.2748091000000001,-7.458015400000001,9
0.084106445,-0.22546387,0.1361084,1.2977100000000001,1.1755725000000001,-1.961832,9
0.08062744,-0.22723389,0.13366699,-3.8931297999999996,2.0458016,-1.1603054,9
0.07922363,-0.22021484,0.12414551,-3.221374,-0.8091603,-4.3053436,9
0.070251465,-0.21496582,0.11352539,-2.2824428,0.8702290000000001,-0.2519084,9
0.07922363,-0.22283936,0.10772705,2.0076337,-2.2900763,-2.076336,9
0.07141113,-0.22509766,0.12774658,-0.022900764,-2.3435113,-0.8549618,9
0.07757568,-0.22900389999999998,0.12841797,6.969465700000001,3.7633588,-0.7557252,9
0.076293945,-0.21844482,0.122558594,-1.0687023,2.5496182000000003,-0.47328246,9
0.068847656,-0.21588135,0.10882568,2.0687022,3.7175572,-2.183206,9
0.06701660000000001,-0.22479248,0.12225342,3.7709922999999996,0.73282444,-3.6793892,9
0.06933594,-0.21374512,0.12408447,-5.7251905999999995,0.9847328000000002,-4.778626,9
0.07385254,-0.24047852,0.11608887,-8.251908,-0.96183205,-4.7938933,9
0.06311035,-0.21447754,0.12371826,3.5877862,3.7404580000000003,-1.0763359,9
0.07159424,-0.22149658,0.11938476599999999,6.664122,2.5648854,-5.038168,9
0.06976318,-0.22320557,0.1262207,8.709924,4.236641400000001,-2.778626,9
0.07574463,-0.21350098,0.12927246,3.1603053,2.4351146,-3.9160306000000005,9
0.07501221,-0.21875,0.122558594,-0.52671754,3.5267177000000003,-6.6335880000000005,9
0.07983398400000001,-0.22265625,0.08074951,-2.5648854,5.2977099999999995,-0.38931298,9
0.07159424,-0.21984863,0.11956787,2.9694657,5.6488547,-5.6106873,9
0.06707764,-0.22644043,0.13024902,2.3053436,4.412214,-6.1297708,9
0.06793213,-0.21984863,0.12854004,2.4580152,4.2137402999999996,-2.3435113,9
0.0637207,-0.22003174,0.13165283,3.5190839999999994,5.015267400000001,-4.5496182,9
0.063964844,-0.22631836,0.12976074,6.3893127,3.1068702,-6.343511599999999,9
0.06811523400000001,-0.22363281,0.1281128,6.7862597000000004,4.7175574000000005,-6.2519083,9
0.07379150400000001,-0.22534179999999995,0.12658691,6.9770994,4.603053599999999,-4.6183205,9
0.06420898400000001,-0.21942139,0.12188721,6.656488400000001,3.038168,-4.8320612999999994,9
0.07171631,-0.22387695,0.13562012,4.4885497,1.3053435,-7.3053436000000005,9
0.072143555,-0.21459961,0.13531494,5.4961834000000005,2.3969467,-7.7557254,9
0.06512451,-0.21655273,0.13067627,1.1603054,1.0763359,-8.244275,9
0.06579589999999999,-0.22528076,0.13189697,3.1908397999999996,0.14503817,-7.099236500000001,9
0.06994629,-0.21954346,0.13275146,6.0992365,-0.33587787,-5.603053599999999,9
0.06286621,-0.2144165,0.12957764,4.1679387000000006,-0.34351146,-6.9847326,9
0.06976318,-0.21484375,0.12701416,1.9007633999999998,-1.5954198999999998,-6.59542,9
0.076049805,-0.21209717,0.11834717,-0.45801526,-2.1984732000000005,-6.6183205,9
0.07574463,-0.2230835,0.13085938,4.8320612999999994,-6.183206,-6.931298,9
0.07519531,-0.22253418,0.14471436,-0.4274809,-0.2977099,-4.0992365,9
0.07434082,-0.21850586,0.12982178,0.7251908,-3.778626,-3.7404580000000003,9
0.08093262,-0.21789551,0.13031006,-1.5038168,-2.8244274,-3.8625953,9
0.06945801,-0.22277832,0.12109375,-2.572519,-3.870229,-6.2519083,9
0.06854248,-0.21887207,0.128479,-5.7938933,-4.0458016,-4.2290077,9
0.07220459,-0.22296143,0.13220215,-5.9770994,-4.473282299999999,-7.3129773,9
0.072387695,-0.22100830000000002,0.1375122,-5.809159999999999,-3.9847328999999996,-4.2824425999999995,9
0.0793457,-0.21209717,0.12878418,-6.7709923,-2.6641220000000003,-5.0076336999999995,9
0.07653808599999999,-0.22198486,0.12640381,-5.6412214999999994,-1.9083970000000001,-4.343511599999999,9
0.08282471,-0.21807861,0.12261963,-2.5648854,-0.8396947,-4.885496,9
0.06481933599999999,-0.21844482,0.11987305,-6.8320612999999994,-1.70229,-4.4503818,9
0.06890869,-0.21813965,0.12573242,-6.0229006,-1.5114504,-3.923664,9
0.07061767599999999,-0.22467041,0.12322998,-6.6335880000000005,0.08396947,-4.3816795,9
0.07360839999999999,-0.21936035,0.13153076,-1.8702290000000001,0.8167939000000001,-3.4961832000000004,9
0.06829834,-0.21856689999999998,0.11956787,-3.1450381000000003,0.03816794,-5.5038165999999995,9
0.076171875,-0.21990967,0.11999512,-3.5572519999999996,-1.4351145,-4.8702292,9
0.084106445,-0.22070312,0.109375,-6.114504,-1.0763359,-3.3587787000000002,9
0.07397461,-0.22161865,0.12243652,-4.6870227,-1.091603,-5.4274807,9
0.07781982400000001,-0.22595215,0.10852051,-1.8778626,-0.58778626,-4.053435299999999,9
0.07653808599999999,-0.21569824,0.11212158,1.1526718,-0.24427481,-4.1755724,9
0.078308105,-0.22344970000000003,0.11584473,-0.46564886,1.8167938999999997,-5.1755724,9
0.07336426,-0.2300415,0.118652344,-2.5419848,-0.122137405,-1.961832,9
0.07684326,-0.22363281,0.11419678,0.4274809,1.0839695,-3.4122138,9
0.07843017599999999,-0.22015381,0.11907959,0.22137405,0.6335878,-2.4351146,9
0.07611084,-0.22595215,0.1171875,-0.007633588,0.9694656999999999,-2.946565,9
0.06872558599999999,-0.21734619,0.12683105,0.6259541999999999,0.7633588000000001,-3.9389312000000007,9
0.072143555,-0.22033691,0.11761474599999999,-2.687023,-1.0992366000000002,-5.1374044,9
0.08148193,-0.22039795,0.11633301,-1.1679389999999998,-0.32061067,-5.931298,9
0.08465576,-0.22564697,0.11187744,1.221374,2.2519082999999998,-4.7022900000000005,9
0.07946777,-0.222229,0.121154785,-1.7175573,1.8549619,-3.9847328999999996,9
0.07086182,-0.21887207,0.11621094,-1.7328244,1.1526718,-5.908396700000001,9
0.07391357400000001,-0.22814941,0.1239624,-2.3435113,-1.0839695,-4.2824425999999995,9
0.07714844,-0.21942139,0.12322998,2.0839694,2.465649,-6.8702292,9
0.08618164,-0.21643066,0.11920166,-2.0152671000000004,-0.6793893,-5.9694657,9
0.07147217,-0.21881104,0.114746094,-3.4427480000000004,-1.8473282,-5.6106873,9
0.07507324,-0.22637939999999998,0.111328125,-2.4732822999999997,-1.5954198999999998,-6.2290077,9
0.06896973,-0.22210693,0.11566162,-1.2519083999999998,0.45038167,-3.4503817999999997,9
0.081848145,-0.22589111,0.10705566400000001,-2.0305343000000002,0.31297709999999995,-4.5648856,9
0.08154297,-0.22271729,0.11834717,-0.19847329,1.2748091000000001,-4.931298,9
0.081848145,-0.21417236,0.11706543,0.22137405,-0.35114503,-3.351145,9
0.08111572,-0.22717285,0.117004395,0.58778626,-0.8549618,-3.465649,9
0.07781982400000001,-0.22503662,0.11370849599999999,2.091603,-1.038168,-5.236641400000001,9
0.08251953,-0.22827148,0.11450195,4.3053436,3.183206,-3.2900763,9
0.07336426,-0.21673584,0.11553955,-2.0610688,0.20610687,-4.335878,9
0.07635498,-0.23040771,0.113220215,0.5114504,0.65648854,-4.9694657,9
0.08087158,-0.2232666,0.11480713,-1.3358778999999998,0.35114503,-6.10687,9
0.07879639,-0.22631836,0.12176514,0.67175573,1.1984733,-5.7862597000000004,9
0.08496094,-0.22119139999999998,0.07562256,-0.90076333,1.1374046,-2.8549618999999997,9
0.07452392599999999,-0.22113037,0.12158203,-0.89312977,0.10687023,-6.40458,9
0.07543945,-0.21795654,0.11956787,1.9007633999999998,0.41984734,-5.763358599999999,9
0.07519531,-0.22900389999999998,0.11596680000000001,1.8549619,1.5725191,-5.59542,9
0.08148193,-0.22009277,0.11480713,1.6259542,1.4656489,-4.4274807,9
0.07843017599999999,-0.22430419999999998,0.12054443,1.9923664,1.7633588,-5.778626,9
0.07751465,-0.21905518,0.11676025400000001,0.90076333,-0.36641222,-5.0610685,9
0.072143555,-0.22741699,0.11743164,-0.52671754,0.2977099,-5.4274807,9
0.082092285,-0.22186279999999997,0.11566162,0.6946565,0.77862597,-4.6793895,9
0.07196045,-0.22021484,0.14270020000000003,0.13740458,1.8854961,-3.8473281999999998,9
0.07757568,-0.22290039,0.11517334,-0.58778626,1.038168,-5.183206,9
0.07324219,-0.22021484,0.111450195,1.3435115,1.1374046,-6.1603055,9
0.07489014,-0.22729492,0.11627197,0.38167940000000006,3.1068702,-3.0229008,9
0.07714844,-0.23168945,0.12432861,1.2519083999999998,3.053435,-4.9541984,9
0.07641601599999999,-0.22454834,0.1161499,6.473282299999999,2.9847328999999996,-5.671755999999999,9
0.07519531,-0.21588135,0.11755371,9.244275,4.2748094000000005,-4.4885497,9
0.07843017599999999,-0.21838379,0.11566162,5.633588,1.8854961,-4.1297708,9
0.07281494,-0.22344970000000003,0.10968017599999999,8.022901,1.8625953999999998,-5.5801525000000005,9
0.08648682,-0.22070312,0.09936523400000001,5.740458,6.603053599999999,0.9389313,9
0.07684326,-0.22882080000000002,0.12451172,10.305344,4.0076336999999995,-4.40458,9
0.08087158,-0.22534179999999995,0.12152099599999999,9.022901,4.2442746,-4.068702,9
0.07141113,-0.22552489999999997,0.121276855,4.908396700000001,4.7938933,-3.7633588,9
0.08764648400000001,-0.22259521,0.12554932,2.6030533,5.1297708,-2.9847328999999996,9
0.06689453,-0.22241211,0.12542725,3.5572519999999996,3.7099237,-3.3587787000000002,9
0.06903076,-0.22351074,0.11682129,3.946565,1.3435115,-3.6717557999999997,9
0.07531738,-0.22338867,0.12377930000000001,8.923664,2.1450381000000003,-4.1755724,9
0.071777344,-0.21789551,0.13171387,5.091603299999999,4.1374044,-2.8015267999999995,9
0.08239746,-0.21936035,0.13928223,-1.519084,3.0152671000000004,-1.2900764,9
0.07824707,-0.22100830000000002,0.12799072,-1.8778626,1.9770991999999998,-4.442748,9
0.06707764,-0.22857666,0.11999512,-0.16793893,2.1526718,-4.664122,9
0.06384277,-0.22399902,0.12780762,1.2977100000000001,4.0229006,-5.4351144,9
0.07458496,-0.21264648,0.12866211,-0.18320611,2.7633588,-2.389313,9
0.07464599599999999,-0.21630860000000002,0.12329101599999999,-5.40458,0.77099234,-4.885496,9
0.07061767599999999,-0.22601318,0.12609863,-3.534351,0.71755725,-5.190840000000001,9
0.06982422,-0.22247314,0.12451172,-2.793893,1.3740458,-3.3282442000000003,9
0.07580566400000001,-0.21905518,0.1282959,-2.9923662999999996,4.0152674,-5.2290077,9
0.08087158,-0.21557617,0.12567139,-9.725191,5.114504,-0.061068702,9
0.06579589999999999,-0.22241211,0.11779785,-6.091603299999999,2.038168,-4.2977099999999995,9
0.07458496,-0.22741699,0.11779785,-12.419847500000001,-0.47328246,-7.961832000000001,9
0.07757568,-0.22857666,0.1149292,-1.0458015,2.2290077,-4.114504,9
0.074279785,-0.2230835,0.12536621,3.7175572,5.0992365,-3.5648854,9
0.08166504,-0.21899414,0.12243652,-1.038168,1.7404580000000003,-1.8396946,9
0.059448242000000005,-0.22045898,0.115356445,-4.2977099999999995,0.45801526,-4.908396700000001,9
0.06988525400000001,-0.22271729,0.11431885,-4.0152674,-0.7480916,-4.8015265,9
0.07507324,-0.2244873,0.12109375,2.961832,0.6183206,-6.1297708,9
0.07122803,-0.22033691,0.12585449,3.0,1.7175573,-2.7175572,9
0.07519531,-0.2244873,0.12475586,0.122137405,-0.114503816,-4.931298,9
0.0758667,-0.22149658,0.11688232400000001,0.2519084,0.34351146,-3.5267177000000003,9
0.07543945,-0.21807861,0.11431885,3.0610687999999997,-1.221374,-5.145038,9
0.07366943,-0.22186279999999997,0.11785889,3.3587787000000002,0.099236645,-4.3893127,9
0.08001709,-0.21557617,0.119628906,4.221374,0.53435117,-4.9694657,9
0.08093262,-0.21740723,0.11279297,-0.19847329,-0.79389316,-3.7251909,9
0.06811523400000001,-0.21893310000000002,0.1194458,3.7251909,-2.0152671000000004,-3.7175572,9
0.06628418,-0.22833252,0.124938965,1.4427481000000002,-0.5801527,-4.6793895,9
0.08233642599999999,-0.22503662,0.11383057,3.40458,1.3282443000000002,-7.038167999999999,9
0.06903076,-0.21539307,0.11999512,4.809159999999999,0.8549618,-3.4732822999999997,9
0.06341553,-0.22747803,0.12023926,7.0229006,1.1984733,-1.7938931,9
0.07305908,-0.2208252,0.13562012,5.076336,1.8931297999999999,-1.6030535,9
0.07800293,-0.21655273,0.12902832,4.0992365,2.2519082999999998,-4.10687,9
0.07379150400000001,-0.21997070000000005,0.12884521,2.6259542000000002,2.427481,-1.9312977,9
0.06628418,-0.22546387,0.12042236,8.687023,2.0305343000000002,-1.4045801000000002,9
0.07019043,-0.20867919999999998,0.13897705,3.5496182000000003,1.7557251,-2.8549618999999997,9
0.07873535,-0.21697998,0.124938965,-1.8244275,1.3435115,-8.877863,9
0.07202148400000001,-0.21960449,0.12902832,1.3969465,2.1145039,-4.0229006,9
0.07269287,-0.23321533,0.12768555,2.5419848,2.7328243,-4.3816795,9
0.0647583,-0.21820068,0.12579346,-1.1679389999999998,1.4198473999999999,-5.603053599999999,9
0.07745361,-0.21997070000000005,0.12371826,-1.4961832,0.9236641,-8.236641,9
0.061157227,-0.22247314,0.12384033,4.3129773,2.5419848,-4.0152674,9
0.06341553,-0.21905518,0.1239624,3.3816792999999996,2.5496182000000003,-6.015267400000001,9
0.06573486,-0.22283936,0.121032715,-1.5496184,1.2824427,-6.8320612999999994,9
0.07849121,-0.21734619,0.13085938,1.648855,1.1068702,-3.4122138,9
0.06854248,-0.22583008,0.12689209,4.2671757,1.1908396,-5.2290077,9
0.07348633,-0.22399902,0.1295166,3.3893129999999996,1.9465648999999998,-2.961832,9
0.07550049,-0.22503662,0.12713623,0.67175573,0.77862597,-4.908396700000001,9
0.08117676,-0.21502686,0.09014892599999999,-4.3893127,3.9007633000000004,-0.77099234,9
0.07653808599999999,-0.22113037,0.12695312,0.5038168,1.4122137,-3.70229,9
0.0793457,-0.22869873,0.11956787,10.297709,4.7862597000000004,-2.946565,9
0.05706787,-0.21148682,0.13299560000000002,1.9694656000000004,0.14503817,-4.3511453,9
0.06665039,-0.22949219,0.12713623,0.64122134,2.5419848,-4.6946564,9
0.07305908,-0.21429443,0.12866211,3.9847328999999996,4.2442746,-1.7709924,9
0.06939697,-0.21777344,0.13146973,1.0839695,-0.19083970000000003,-3.832061,9
0.07495117,-0.21374512,0.13226318,0.122137405,0.89312977,-3.1374047000000003,9
0.06842041,-0.22241211,0.13153076,0.8015267,0.55725193,-3.8015267999999995,9
0.08093262,-0.21826172,0.09033203,-0.8854962,0.045801528,-0.5114504,9
0.07202148400000001,-0.22497559,0.12664795,0.9541985000000001,0.99236643,-3.4503817999999997,9
0.07385254,-0.21099854,0.13061523,3.4580152,-1.4503816,-5.59542,9
0.06726074,-0.21777344,0.13067627,-2.8244274,0.54198474,-4.0229006,9
0.06707764,-0.21258545,0.12310791,0.48091602,-2.1221373,-2.1908397999999996,9
0.07720947,-0.22546387,0.1274414,1.3816794,-0.740458,-4.236641400000001,9
0.06903076,-0.21405029999999997,0.13903809,-0.5801527,0.5496183000000001,-2.5801528,9
0.06591797,-0.22375488,0.11993408,6.9770994,0.8167939000000001,-2.6488549999999997,9
0.064575195,-0.21624756,0.12902832,-2.7480917000000002,1.6564884999999998,-4.038168,9
0.06793213,-0.22125244,0.14135742,-4.2977099999999995,-0.129771,-3.221374,9
0.07727051,-0.22595215,0.11694336,5.9160304,-0.41984734,-5.8320612999999994,9
0.07006836,-0.2166748,0.12701416,0.0,0.17557251,-3.7709922999999996,9
0.074279785,-0.21514893,0.14001465,-0.8244275,1.6870228999999999,-3.5877862,9
0.07885742,-0.20855713,0.12561035,0.32061067,3.40458,-2.076336,9
0.07458496,-0.21343994,0.13659668,0.45801526,5.480916000000001,-2.5801528,9
0.06500244,-0.22320557,0.14056396,0.045801528,7.4274807,-3.2519082999999998,9
0.0725708,-0.20910645,0.11895752,-12.488549,2.076336,-6.4885497,9
0.061279297,-0.22064209,0.115722656,-12.969465,1.7633588,-8.938931,9
0.068847656,-0.23156738,0.117004395,1.4732825,1.5877863,-6.091603299999999,9
0.064453125,-0.22576904,0.12750244,6.4656487,1.2519083999999998,-4.3893127,9
0.06628418,-0.2166748,0.12945557,-0.091603056,1.5725191,-6.2519083,9
0.07000732400000001,-0.22198486,0.13275146,-1.1984733,1.2977100000000001,-4.740458,9
0.06799316400000001,-0.21453857,0.12145996,-0.47328246,3.3358779999999997,-3.7328242999999994,9
0.06677246,-0.21875,0.12078857400000001,-2.3282442000000003,2.0305343000000002,-6.740458,9
0.08538818,-0.22460938,0.11749267599999999,-1.8320610000000002,0.77099234,-6.763358599999999,9
0.06951904,-0.22442627,0.12377930000000001,0.4427481,1.1832061000000003,-7.0839696,9
0.07659912,-0.22229004,0.123535156,-0.2519084,0.5648854999999999,-7.3587785000000006,9
0.070129395,-0.21594238,0.12414551,-1.9465648999999998,1.1450381,-6.7862597000000004,9
0.07312012,-0.21362305,0.12084961,0.16793893,1.8702290000000001,-6.6793895,9
0.07781982400000001,-0.21319580000000002,0.11981201,-0.015267176,1.0763359,-6.793893300000001,9
0.06420898400000001,-0.22509766,0.11584473,-0.3053435,0.740458,-3.9312977999999994,9
0.072265625,-0.21917725,0.12530518,0.38931298,1.5801526000000001,-3.4961832000000004,9
0.07360839999999999,-0.22558594,0.12731934,-1.389313,0.6183206,-6.145038,9
0.07232666,-0.20947266,0.12683105,-3.206107,0.022900764,-8.175572,9
0.07122803,-0.21960449,0.13171387,-2.0610688,0.7557252,-5.671755999999999,9
0.06402588,-0.22259521,0.13098145,-1.7557251,0.122137405,-6.8778625,9
0.0680542,-0.21923828,0.117004395,-1.1450381,-0.22900763,-3.1908397999999996,9
0.080078125,-0.21923828,0.12414551,-2.1526718,0.9312976999999999,-6.4961834000000005,9
0.07110596,-0.22058105,0.13055419999999998,-0.96183205,0.89312977,-5.2671757,9
0.070251465,-0.21801758,0.12066650400000001,-2.0992367,0.740458,-5.3511453,9
0.07305908,-0.21997070000000005,0.12597656,-0.9160305000000001,0.9160305000000001,-4.8625956,9
0.07196045,-0.22473145,0.12884521,-0.9541985000000001,1.9465648999999998,-6.5725193,9
0.08172607400000001,-0.21746826,0.12438965,0.8396947,0.90076333,-3.3129769999999996,9
0.07330322,-0.22296143,0.13128662,-1.6564884999999998,-0.57251906,-4.587786,9
0.06292724599999999,-0.22125244,0.12280273400000001,-2.3664122000000005,-1.1908396,-6.656488400000001,9
0.06860351599999999,-0.21746826,0.11798096,1.4503816,-0.6793893,-7.9160304,9
0.072143555,-0.22418213,0.12786865,1.4045801000000002,-0.030534351,-6.1984735,9
0.07543945,-0.21948242,0.12426758,-0.045801528,-1.7709924,-5.4656487,9
0.076049805,-0.21960449,0.12200928,-0.14503817,-1.5419847,-6.5419846,9
0.07904053,-0.21954346,0.12414551,-1.9312977,-3.1221373,-5.0839696,9
0.07873535,-0.21893310000000002,0.12799072,1.2442749,-0.19847329,-8.045800999999999,9
0.07397461,-0.22094727,0.12023926,-0.99236643,-1.9083970000000001,-5.0305343,9
0.072387695,-0.22607422,0.11608887,-3.4274809999999998,-1.5038168,-5.2442746,9
0.08172607400000001,-0.21777344,0.11608887,2.427481,-0.22900763,-3.4732822999999997,9
0.074401855,-0.22351074,0.12475586,4.59542,-0.7099236999999999,-3.3816792999999996,9
0.08551025400000001,-0.21960449,0.12719727,0.17557251,-0.6335878,-3.0839694,9
0.08557129,-0.21887207,0.08337402,-4.3511453,0.9312976999999999,-0.36641222,9
0.07757568,-0.21716309,0.12530518,-0.091603056,0.77099234,-4.6412214999999994,9
0.06933594,-0.22125244,0.119140625,0.34351146,0.90839696,-5.0610685,9
0.07592773400000001,-0.22857666,0.12121582,0.20610687,0.6488550000000001,-5.7251905999999995,9
0.06994629,-0.21917725,0.123535156,-1.259542,2.2900763,-4.0,9
0.07684326,-0.21795654,0.12377930000000001,-1.2824427,2.572519,-2.7862597,9
0.07318115,-0.21899414,0.11358642599999999,0.14503817,0.03816794,-4.923664,9
0.080566406,-0.21997070000000005,0.11682129,0.7633588000000001,0.740458,-3.2442749,9
0.07775879,-0.22155762,0.12066650400000001,-0.73282444,3.4809160000000006,-5.0992365,9
0.08148193,-0.21875,0.12042236,-1.8702290000000001,2.3816792999999996,-4.847328,9
0.07965088,-0.21911621,0.12011719,0.54198474,0.740458,-3.534351,9
0.075683594,-0.22064209,0.11920166,-1.2748091000000001,0.8015267,-4.0610685,9
0.07409668,-0.222229,0.11151123,0.9847328000000002,2.0305343000000002,-3.946565,9
0.08148193,-0.22265625,0.123535156,0.84732825,2.8473282,-3.9694656999999998,9
0.08215332,-0.22344970000000003,0.11804199,0.4427481,0.6488550000000001,-4.9923663000000005,9
0.07519531,-0.21917725,0.12188721,-0.9694656999999999,0.5801527,-3.2748091,9
0.08032226599999999,-0.22174072,0.11743164,0.07633588,1.0763359,-2.687023,9
0.07714844,-0.22302246,0.11743164,1.0839695,1.2366412,-2.5114503,9
0.07940674,-0.21520996,0.11584473,-3.2824428,2.206107,-2.053435,9
0.06903076,-0.21948242,0.11730957,-0.17557251,0.9465648999999999,-4.557252,9
0.07128906,-0.21838379,0.11602783,-0.19083970000000003,0.83206105,-4.5038165999999995,9
0.08172607400000001,-0.22723389,0.12432861,-1.3358778999999998,-1.4961832,-3.1374047000000003,9
0.07647705,-0.2166748,0.12530518,2.5038167999999996,1.5038168,-4.396946400000001,9
0.078125,-0.22149658,0.123046875,1.5038168,0.3740458,-5.480916000000001,9
0.07592773400000001,-0.21972656,0.1149292,0.48091602,0.79389316,-7.396946400000001,9
0.07061767599999999,-0.22094727,0.11804199,-0.90839696,1.0152671,-4.908396700000001,9
0.076049805,-0.22070312,0.1295166,0.7633588000000001,1.1145038999999999,-3.1374047000000003,9
0.070129395,-0.22113037,0.122924805,0.57251906,0.10687023,-4.480916000000001,9
0.070251465,-0.22869873,0.113464355,0.6488550000000001,2.7328243,-5.366412,9
0.06890869,-0.22174072,0.119262695,1.6946564999999998,1.1603054,-2.816794,9
0.08569336,-0.22534179999999995,0.11877441400000001,0.8244275,1.038168,-6.6412214999999994,9
0.07421875,-0.21563720000000003,0.11590576,0.21374045,-1.0992366000000002,-5.335878,9
0.07745361,-0.22607422,0.11859131,2.2290077,0.29007635,-5.557252,9
0.072143555,-0.21881104,0.12646484,1.7557251,0.015267176,-5.1221375,9
0.070373535,-0.22430419999999998,0.11761474599999999,0.22137405,1.8244275,-5.1297708,9
0.07312012,-0.22753906,0.113464355,0.9694656999999999,2.7328243,-5.633588,9
0.07757568,-0.22827148,0.11773682,0.57251906,0.5496183000000001,-4.3587785000000006,9
0.07116699,-0.2220459,0.12194824,1.4274809,1.9160305,-3.1145039,9
0.07556152,-0.22229004,0.11468506,1.8015267,-0.47328246,-4.2824425999999995,9
0.076660156,-0.22302246,0.12878418,1.1679389999999998,0.099236645,-4.1603055,9
0.07458496,-0.22088623,0.12988281,1.2519083999999998,2.3053436,-6.9160304,9
0.082092285,-0.22399902,0.12243652,-0.23664123,0.4274809,-3.3129769999999996,9
0.07379150400000001,-0.21771239999999997,0.12133789,0.79389316,0.96183205,-2.5648854,9
0.07385254,-0.22149658,0.12097168,-0.007633588,0.52671754,-4.328244000000001,9
0.06671142599999999,-0.2232666,0.12139892599999999,1.9923664,1.6641221000000002,-6.763358599999999,9
0.06842041,-0.22296143,0.11730957,0.15267175,0.099236645,-5.053435299999999,9
0.07550049,-0.22564697,0.12860107,1.3740458,2.2442749,-3.7862597,9
0.06964111,-0.22393799,0.12390137,1.7099236,0.6259541999999999,-3.6641220000000003,9
0.06774902,-0.22113037,0.12402344,0.9389313,1.961832,-2.8625952999999997,9
0.07983398400000001,-0.21856689999999998,0.12335205,-0.030534351,2.1984732000000005,-6.2900763,9
0.0725708,-0.21704102,0.122924805,0.83206105,1.4045801000000002,-3.2900763,9
0.06427002,-0.21801758,0.12280273400000001,1.389313,0.122137405,-5.0,9
0.07495117,-0.22241211,0.12017822,0.053435113,1.4503816,-2.519084,9
0.07360839999999999,-0.22113037,0.13189697,-0.71755725,0.6946565,-5.7251905999999995,9
0.07141113,-0.22631836,0.12261963,0.86259544,2.038168,-2.2519082999999998,9
0.08081055,-0.21582031,0.11730957,-0.8549618,-0.4274809,-3.3053436,9
0.08111572,-0.22393799,0.11602783,0.259542,1.1526718,-1.7633588,9
0.0803833,-0.22186279999999997,0.12268066400000001,0.38931298,3.183206,-5.7709923,9
0.07751465,-0.21881104,0.12078857400000001,-0.053435113,-1.0,-5.091603299999999,9
0.0715332,-0.21807861,0.12646484,2.465649,0.2519084,-6.2061067,9
0.07067871,-0.21923828,0.12219238,2.0610688,1.5038168,-4.4351144,9
0.06951904,-0.22625732,0.12152099599999999,-0.38167940000000006,0.9465648999999999,-4.3053436,9
0.07702637,-0.22351074,0.11920166,1.8778626,2.2595419999999997,-3.6870230000000004,9
0.07250976599999999,-0.22991943,0.12158203,2.1603053,1.7251908999999999,-3.4274809999999998,9
0.07574463,-0.21936035,0.12298584,0.18320611,-0.259542,-3.7175572,9
0.08605957,-0.21618652,0.08288574,-0.045801528,2.5496182000000003,0.6183206,9
0.06915283,-0.22058105,0.12207031,0.77862597,1.4045801000000002,-7.4885497,9
0.07543945,-0.21850586,0.11846924,-0.52671754,-1.0076336,-3.7404580000000003,9
0.07104492,-0.22259521,0.13024902,1.4274809,1.2442749,-6.10687,9
0.07141113,-0.22357178,0.12213135,1.6946564999999998,1.4045801000000002,-4.366412,9
0.06970215,-0.21807861,0.12377930000000001,-1.7251908999999999,1.7709924,-4.9770994,9
0.079589844,-0.21478271,0.12011719,0.77862597,-0.40458015,-4.0076336999999995,9
0.07232666,-0.21508789,0.12237549,1.0534351,1.1068702,-4.259542,9
0.07318115,-0.22283936,0.12249756,0.6488550000000001,1.0076336,-6.5343513,9
0.074035645,-0.22381592,0.12200928,-0.9160305000000001,0.9389313,-4.1374044,9
0.07434082,-0.22485352,0.11468506,1.2290076,-0.6335878,-5.2442746,9
0.070129395,-0.21899414,0.11859131,1.1832061000000003,-0.091603056,-3.6870230000000004,9
0.08361816400000001,-0.22198486,0.12060547,0.6259541999999999,0.35114503,-2.2671757,9
0.08178711,-0.21691895,0.11834717,2.5648854,1.0152671,-3.3969467000000004,9
0.06939697,-0.22406006,0.122924805,-2.3206108,0.38167940000000006,-4.923664,9
0.07269287,-0.21984863,0.11743164,0.49618322,0.13740458,-4.7862597000000004,9
0.07342529,-0.22570801,0.11920166,-1.1068702,1.2366412,-3.5877862,9
0.07647705,-0.22174072,0.12225342,0.4427481,0.9389313,-3.6946564,9
0.081970215,-0.22235107,0.12158203,-1.8015267,2.183206,-3.4885497,9
0.07092285,-0.22192383,0.12286377,-1.519084,1.0305344,-6.1755724,9
0.07110596,-0.21697998,0.11755371,0.49618322,-0.06870229,-4.557252,9
0.078308105,-0.22021484,0.11950683599999999,1.038168,0.31297709999999995,-5.931298,9
0.0793457,-0.22381592,0.11590576,0.6946565,-0.8015267,-6.557252,9
0.08117676,-0.22241211,0.121154785,-0.67175573,0.32824427,-4.6488547,9
0.07733154,-0.21820068,0.11541748,-0.06870229,-0.13740458,-4.343511599999999,9
0.07183838,-0.22052002,0.12152099599999999,0.114503816,1.2977100000000001,-4.190840000000001,9
0.07922363,-0.21844482,0.11755371,0.89312977,0.015267176,-4.396946400000001,9
0.08508301,-0.21752929999999995,0.11047363,-1.3053435,2.3358779999999997,-1.8015267,9
0.06921387,-0.21887207,0.12286377,-1.1832061000000003,0.7633588000000001,-4.4274807,9
0.07250976599999999,-0.21563720000000003,0.11187744,0.16793893,0.129771,-4.9923663000000005,9
0.07067871,-0.222229,0.12384033,1.3587786,1.259542,-3.6183207000000004,9
0.07745361,-0.2208252,0.117248535,0.22137405,0.7633588000000001,-6.183206,9
0.075683594,-0.2244873,0.11895752,0.99236643,1.7709924,-5.3511453,9
0.07446289,-0.22277832,0.12646484,-0.610687,1.0763359,-6.2290077,9
0.07208252,-0.22241211,0.12664795,1.5877863,1.5267175,-5.4503818,9
0.07916260000000001,-0.21691895,0.12054443,-0.610687,1.3053435,-4.221374,9
0.07598877,-0.22332764,0.115356445,1.1603054,1.389313,-3.3282442000000003,9
0.06994629,-0.22528076,0.12554932,-0.2519084,0.7633588000000001,-6.0,9
0.07446289,-0.22393799,0.12628174,1.6335878000000001,1.9007633999999998,-7.4503818,9
0.075683594,-0.22174072,0.12023926,2.70229,0.053435113,-4.6106873,9
0.07550049,-0.22296143,0.117126465,-0.27480915,0.67175573,-5.221374,9
0.08465576,-0.22088623,0.11560058599999999,0.48854962,0.03816794,-3.923664,9
0.07434082,-0.21661377,0.12640381,0.015267176,1.7251908999999999,-3.8473281999999998,9
0.07855224599999999,-0.21960449,0.12347412,-0.3740458,1.0229008,-6.4656487,9
0.07165527,-0.21978760000000003,0.11462402,1.9236640999999999,1.1450381,-5.2824425999999995,9
0.07678223,-0.22595215,0.11291504,1.5038168,0.6870229,-3.038168,9
0.07159424,-0.22808838,0.12017822,0.259542,1.1984733,-4.3511453,9
0.06829834,-0.21679688,0.12109375,0.045801528,0.10687023,-3.2824428,9
0.06671142599999999,-0.21234131,0.12023926,0.58778626,2.2137403,-5.7938933,9
0.07672119,-0.22259521,0.12268066400000001,0.84732825,0.29007635,-4.7938933,9
0.07525635,-0.22058105,0.12036133,0.58778626,1.2671756,-4.3816795,9
0.07635498,-0.22760010000000003,0.121276855,1.4427481000000002,2.4045799999999997,-3.3816792999999996,9
0.08251953,-0.22454834,0.12286377,0.9541985000000001,1.1297709999999999,-3.59542,9
0.07196045,-0.22821045,0.1260376,0.48854962,0.9847328000000002,-2.6946564,9
0.0758667,-0.22363281,0.118652344,0.099236645,1.648855,-5.190840000000001,9
0.07397461,-0.22003174,0.11932373,-0.43511450000000007,1.7480916000000002,-4.847328,9
0.07043457,-0.21789551,0.12048339999999998,1.0839695,1.4122137,-4.5114503,9
0.08264160000000001,-0.22497559,0.1194458,-0.16793893,0.8396947,-2.8625952999999997,9
0.08343506,-0.22515869,0.12658691,0.71755725,1.2519083999999998,-4.89313,9
0.076171875,-0.22613525,0.1295166,1.1679389999999998,-0.54198474,-5.6793895,9
0.07464599599999999,-0.22552489999999997,0.12548828,0.65648854,1.8549619,-4.3511453,9
0.07775879,-0.21990967,0.12280273400000001,1.7786259999999998,0.8854962,-3.6335877999999995,9
0.072143555,-0.22698975,0.118652344,-0.06870229,-0.022900764,-5.763358599999999,9
0.07745361,-0.21612549,0.12194824,0.57251906,1.5801526000000001,-4.961832,9
0.07061767599999999,-0.22686768,0.12908936,0.41221374,3.2824428,-3.0992367,9
0.081970215,-0.21960449,0.08520508,-0.35114503,3.1450381000000003,-0.41221374,9
0.07006836,-0.21630860000000002,0.118652344,0.46564886,1.5801526000000001,-4.3511453,9
0.07574463,-0.21978760000000003,0.1194458,1.480916,0.8854962,-4.6106873,9
0.072387695,-0.22180176,0.12322998,0.73282444,-0.8778626,-3.2671757,9
0.0769043,-0.22802734,0.12200928,-1.2748091000000001,0.16793893,-5.7175574000000005,9
0.07556152,-0.22143555,0.12200928,-0.045801528,0.6488550000000001,-4.9007635,9
0.070373535,-0.22186279999999997,0.123046875,-0.32824427,0.7480916,-3.7633588,9
0.07763672,-0.22167969,0.12512207,1.6259542,2.557252,-3.9770992,9
0.07562256,-0.22058105,0.12554932,1.9007633999999998,1.9694656000000004,-3.7099237,9
0.07122803,-0.2265625,0.125,0.2977099,2.038168,-5.664122,9
0.07775879,-0.21893310000000002,0.11853027,0.22137405,2.5114503,-4.5725193,9
0.07550049,-0.21905518,0.12017822,-0.67175573,2.5496182000000003,-4.7557254,9
0.07122803,-0.22406006,0.11968994,0.79389316,0.9160305000000001,-4.7022900000000005,9
0.07781982400000001,-0.21807861,0.12121582,2.3053436,1.1603054,-6.2290077,9
0.07800293,-0.23095703,0.12512207,2.0839694,0.55725193,-6.587786,9
0.07531738,-0.22692871,0.115722656,-0.8702290000000001,2.3511450000000003,-4.3511453,9
0.078186035,-0.22119139999999998,0.12249756,2.0839694,0.29007635,-3.4580152,9
0.08557129,-0.22015381,0.11730957,1.0305344,0.40458015,-2.7862597,9
0.07482910000000001,-0.22412110000000002,0.12231445,-1.3816794,2.832061,-1.7404580000000003,9
0.07519531,-0.22210693,0.111328125,0.43511450000000007,1.8167938999999997,-3.8015267999999995,9
0.06469726599999999,-0.21929932,0.12060547,0.099236645,2.167939,-4.0305343,9
0.06994629,-0.22473145,0.122558594,0.4427481,1.4198473999999999,-4.3511453,9
0.080078125,-0.21051025,0.12261963,-0.38167940000000006,0.9541985000000001,-4.0610685,9
0.07537842,-0.22198486,0.11395264,1.70229,-0.061068702,-3.59542,9
0.07470703,-0.21929932,0.12390137,-1.1145038999999999,1.3206106000000002,-5.9389315,9
0.06982422,-0.21624756,0.11743164,2.6717557999999997,2.572519,-3.9923663,9
0.074279785,-0.22064209,0.1194458,0.28244275,0.73282444,-4.2977099999999995,9
0.07519531,-0.22503662,0.11590576,0.79389316,2.129771,-2.5648854,9
0.07385254,-0.222229,0.11810303,1.6259542,1.5801526000000001,-3.038168,9
0.08355713,-0.21966553,0.12469482400000001,0.20610687,1.9236640999999999,-5.1374044,9
0.07171631,-0.22186279999999997,0.12390137,1.6793894,1.2977100000000001,-3.870229,9
0.06726074,-0.21881104,0.12457275400000001,1.7328244,0.64122134,-3.183206,9
0.06964111,-0.22137451,0.122558594,1.3587786,0.48091602,-5.8244276,9
0.06854248,-0.22607422,0.12957764,0.35114503,0.8549618,-5.473282299999999,9
0.0758667,-0.21624756,0.12060547,1.6183206,2.3740457999999998,-2.946565,9
0.06262207,-0.21795654,0.12768555,-0.90839696,3.1526718,-5.40458,9
0.07977295,-0.22106934,0.12591553,-1.0687023,0.16793893,-3.961832,9
0.08428955,-0.2208252,0.12365723,1.9236640999999999,-0.13740458,-4.984732599999999,9
0.07879639,-0.22570801,0.12170410000000002,0.091603056,1.0839695,-5.0229006,9
0.07299805,-0.22088623,0.12402344,1.0992366000000002,2.2595419999999997,-5.656488400000001,9
0.07452392599999999,-0.21704102,0.12243652,0.6183206,1.2824427,-2.4045799999999997,9
0.07458496,-0.22216797,0.12310791,3.5496182000000003,1.3206106000000002,-4.4580154,9
0.07281494,-0.22625732,0.12731934,1.5877863,-1.4427481000000002,-3.9541983999999997,9
0.08306885,-0.21838379,0.12341308599999999,0.45801526,0.57251906,-4.6488547,9
0.07141113,-0.22534179999999995,0.12463379,-0.35877863,2.0229008,-3.5190839999999994,9
0.07574463,-0.22247314,0.11810303,0.8396947,-0.41984734,-2.816794,9
0.08233642599999999,-0.23211669999999998,0.12145996,-0.030534351,0.045801528,-3.4198472,9
0.07098389,-0.22271729,0.12329101599999999,0.35114503,0.21374045,-4.5801525000000005,9
0.06298828,-0.22088623,0.124816895,1.5038168,1.7099236,-5.335878,9
0.06939697,-0.2166748,0.119262695,1.9007633999999998,1.1526718,-4.8396945,9
0.07446289,-0.21966553,0.123046875,-0.3053435,-0.99236643,-4.3206105,9
0.06549072,-0.22106934,0.12237549,0.7557252,0.79389316,-3.7175572,9
0.082092285,-0.22778320000000005,0.12280273400000001,0.49618322,-0.22137405,-3.6335877999999995,9
0.07769775400000001,-0.21832275,0.11517334,-0.67175573,0.45038167,-4.7328243,9
0.07879639,-0.21984863,0.12097168,0.9160305000000001,1.7328244,-4.1603055,9
0.07421875,-0.22039795,0.12475586,-1.1603054,-2.0610688,-5.396946400000001,9
0.0725708,-0.22613525,0.12359619,1.5725191,1.2442749,-4.1984735,9
0.076660156,-0.21771239999999997,0.12182617,2.5267177000000003,1.7862595000000001,-5.557252,9
0.07293701,-0.22467041,0.11920166,1.9770991999999998,1.221374,-4.190840000000001,9
0.07092285,-0.21893310000000002,0.125,1.0458015,-0.71755725,-5.7175574000000005,9
0.08233642599999999,-0.21997070000000005,0.091796875,-1.4656489,0.8854962,-1.1679389999999998,9
0.08233642599999999,-0.21508789,0.12048339999999998,1.1450381,0.71755725,-3.0229008,9
0.08697510000000001,-0.22033691,0.12677002,0.17557251,1.1068702,-5.4656487,9
0.08227539,-0.21783447,0.118652344,0.07633588,1.1145038999999999,-3.9923663,9
0.08154297,-0.21759033,0.12908936,1.2824427,0.45038167,-3.1068702,9
0.08099365,-0.22039795,0.09332275400000001,-1.1755725000000001,3.3206108,-1.4961832,9
0.06915283,-0.22210693,0.12207031,1.1068702,0.47328246,-5.221374,9
0.07745361,-0.22393799,0.12469482400000001,0.71755725,1.5877863,-7.236641400000001,9
0.07928467,-0.22100830000000002,0.12774658,1.1374046,-1.5877863,-5.671755999999999,9
0.078308105,-0.2232666,0.12329101599999999,3.1755726,0.23664123,-5.0992365,9
0.07849121,-0.22674560000000002,0.1281128,1.9770991999999998,-0.091603056,-5.809159999999999,9
0.0690918,-0.22070312,0.118652344,1.8702290000000001,0.49618322,-3.4122138,9
0.07171631,-0.22558594,0.12701416,1.9236640999999999,0.60305345,-6.5725193,9
0.08111572,-0.22137451,0.12329101599999999,1.0305344,-0.39694658,-4.8244276,9
0.08227539,-0.22283936,0.13055419999999998,2.3511450000000003,-0.77099234,-4.2824425999999995,9
0.07531738,-0.22229004,0.11785889,1.6030535,-0.114503816,-4.7251905999999995,9
0.07342529,-0.22143555,0.1281128,-0.38931298,-0.46564886,-2.389313,9
0.078186035,-0.22064209,0.11419678,0.114503816,0.114503816,-4.1603055,9
0.07580566400000001,-0.22143555,0.12536621,0.60305345,0.48854962,-4.8244276,9
0.07647705,-0.22357178,0.12310791,0.7633588000000001,1.8167938999999997,-6.2900763,9
0.07946777,-0.21582031,0.11584473,1.0992366000000002,-0.16030534,-4.847328,9
0.07647705,-0.22180176,0.11859131,1.5954198999999998,0.71755725,-6.5801525,9
0.07507324,-0.21844482,0.12322998,1.3358778999999998,-0.40458015,-7.1297708,9
0.0803833,-0.21679688,0.13549805,-0.2519084,1.0229008,-2.534351,9
0.07000732400000001,-0.22021484,0.12200928,2.8396947,-0.64122134,-3.6335877999999995,9
0.076049805,-0.22479248,0.11578369,0.8396947,-0.099236645,-4.5496182,9
0.06579589999999999,-0.21929932,0.11529541,1.0687023,0.9160305000000001,-5.854962,9
0.07482910000000001,-0.22259521,0.1260376,1.5725191,0.35877863,-3.3129769999999996,9
0.074401855,-0.22113037,0.12322998,0.129771,0.28244275,-5.1221375,9
0.07867432,-0.21673584,0.12390137,0.71755725,0.20610687,-3.6946564,9
0.06896973,-0.22009277,0.12677002,0.28244275,0.6870229,-3.9007633000000004,9
0.07354736,-0.21881104,0.12585449,-0.23664123,1.221374,-6.0839696,9
0.07708739999999999,-0.21343994,0.14501953,-0.22900763,1.4732825,-4.6412214999999994,9
0.07324219,-0.22015381,0.12554932,1.3053435,0.053435113,-5.8015265,9
0.06750488,-0.21820068,0.12988281,-0.007633588,-0.030534351,-5.7099237,9
0.07464599599999999,-0.22637939999999998,0.13067627,0.26717559,0.38167940000000006,-5.816794,9
0.07489014,-0.21966553,0.12457275400000001,1.0839695,1.6335878000000001,-4.3893127,9
0.07299805,-0.22253418,0.12976074,1.5496184,0.49618322,-3.8244274,9
0.08428955,-0.21997070000000005,0.12402344,2.6717557999999997,1.038168,-3.3664122000000005,9
0.07672119,-0.22039795,0.12664795,0.35114503,-0.053435113,-4.10687,9
0.0758667,-0.22039795,0.12347412,1.0763359,0.65648854,-2.9847328999999996,9
0.07928467,-0.22235107,0.123535156,0.15267175,1.4198473999999999,-4.9007635,9
0.07678223,-0.22869873,0.13208008,1.2290076,0.31297709999999995,-5.946564700000001,9
0.08483887,-0.22515869,0.12261963,1.1145038999999999,1.9923664,-4.2824425999999995,9
0.07373047,-0.22241211,0.12634277,0.39694658,0.7251908,-3.534351,9
0.07983398400000001,-0.21936035,0.12249756,1.1450381,1.3129771000000001,-4.5419846,9
0.07354736,-0.22039795,0.11804199,0.7633588000000001,0.90839696,-5.4885497,9
0.074157715,-0.21716309,0.11651611,0.86259544,1.1908396,-5.1374044,9
0.07702637,-0.21929932,0.12664795,0.259542,1.7786259999999998,-3.7862597,9
0.07055664,-0.21862793,0.12347412,0.35114503,0.8015267,-5.10687,9
0.0758667,-0.22253418,0.11968994,-0.97709924,0.32061067,-4.473282299999999,9
0.08251953,-0.22045898,0.12005615,-0.9312976999999999,1.8625953999999998,-4.526717700000001,9
0.07452392599999999,-0.21826172,0.12036133,-0.2977099,3.053435,-3.5648854,9
0.07495117,-0.21990967,0.11688232400000001,-0.2977099,2.9847328999999996,-4.946564700000001,9
0.07897949,-0.22247314,0.117004395,0.33587787,0.9389313,-4.0305343,9
0.07910156,-0.22644043,0.12261963,0.08396947,-0.061068702,-5.5801525000000005,9
0.07708739999999999,-0.21484375,0.12207031,1.4580153,2.0152671000000004,-5.0076336999999995,9
0.07800293,-0.21881104,0.11694336,1.389313,1.0458015,-2.7633588,9
0.06689453,-0.21826172,0.12438965,-0.16793893,0.8091603,-3.2290077,9
0.07659912,-0.22100830000000002,0.12225342,0.28244275,2.4732822999999997,-5.6106873,9
0.08282471,-0.22210693,0.12927246,4.4198474999999995,2.183206,-3.1984732000000005,9
0.08276367,-0.22094727,0.12280273400000001,0.32824427,1.6717557,-3.7175572,9
0.07366943,-0.22033691,0.12982178,-1.9770991999999998,2.0992367,-4.587786,9
0.06781006,-0.22296143,0.1171875,-0.46564886,1.0229008,-4.6488547,9
0.08435058599999999,-0.22015381,0.12713623,1.5267175,1.0839695,-3.7709922999999996,9
0.06970215,-0.22216797,0.12207031,0.9312976999999999,2.6946564,-5.5343513,9
0.07409668,-0.22131348,0.12542725,0.71755725,0.26717559,-2.4198472,9
0.07653808599999999,-0.22723389,0.12231445,1.8702290000000001,0.35114503,-2.6793892,9
0.07147217,-0.21801758,0.13024902,0.90076333,0.5648854999999999,-4.2900763,9
0.07470703,-0.22485352,0.123046875,1.5114504,1.4427481000000002,-4.9770994,9
0.08636474599999999,-0.21887207,0.09313965,-2.29771,4.038168,-0.8854962,9
0.075683594,-0.21832275,0.12506104,-1.0,1.3740458,-4.068702,9
0.07482910000000001,-0.22235107,0.12261963,1.2900764,0.9694656999999999,-2.8015267999999995,9
0.07073974599999999,-0.21868896,0.1270752,2.778626,1.4503816,-4.0610685,9
0.082092285,-0.22363281,0.124816895,1.4274809,0.22900763,-5.7251905999999995,9
0.082092285,-0.21832275,0.12689209,0.3053435,0.49618322,-3.1221373,9
0.07360839999999999,-0.2220459,0.12573242,2.5496182000000003,0.45038167,-4.4274807,9
0.06683349599999999,-0.22412110000000002,0.11810303,1.480916,2.2671757,-3.40458,9
0.07733154,-0.22741699,0.12548828,0.89312977,1.4503816,-7.3206105,9
0.070373535,-0.21875,0.13427734,-0.41984734,2.5954200000000003,-3.9160306000000005,9
0.07507324,-0.21936035,0.12072754,1.0534351,-0.3053435,-6.114504,9
0.06860351599999999,-0.21984863,0.12036133,1.0687023,1.3969465,-3.1450381000000003,9
0.07635498,-0.21533203,0.12231445,0.27480915,1.3053435,-5.2290077,9
0.07354736,-0.22454834,0.123535156,0.9160305000000001,0.71755725,-2.832061,9
0.07739258,-0.22937012,0.12078857400000001,0.15267175,1.351145,-2.7709923,9
0.06555176,-0.21783447,0.12390137,0.740458,1.5496184,-6.5038165999999995,9
0.08074951,-0.21850586,0.12005615,-0.610687,1.5343511,-4.10687,9
0.06506348,-0.22033691,0.12347412,0.54198474,1.091603,-2.167939,9
0.081848145,-0.21582031,0.12438965,-1.2137405,1.8320610000000002,-3.3969467000000004,9
0.06994629,-0.21984863,0.12615967,-0.58778626,1.1145038999999999,-4.145038,9
0.07202148400000001,-0.21972656,0.12139892599999999,1.5114504,2.183206,-6.259542,9
0.0758667,-0.22076416,0.12402344,1.5114504,0.5954198,-4.946564700000001,9
0.07305908,-0.22076416,0.12640381,1.0992366000000002,1.1679389999999998,-4.145038,9
0.07318115,-0.22625732,0.12561035,0.55725193,-0.27480915,-3.7709922999999996,9
0.07073974599999999,-0.22265625,0.123046875,0.610687,0.740458,-4.946564700000001,9
0.07519531,-0.21612549,0.12390137,2.1145039,1.8244275,-3.5877862,9
0.07263183599999999,-0.2208252,0.1282959,3.206107,1.8473282,-4.038168,9
0.07928467,-0.21606445,0.15423584,0.15267175,0.16030534,-4.1297708,9
0.07165527,-0.22705078,0.12518310000000002,1.0534351,1.4503816,-3.908397,9
0.07458496,-0.222229,0.12683105,1.6183206,1.3358778999999998,-5.480916000000001,9
0.07165527,-0.22192383,0.12243652,2.2519082999999998,0.099236645,-2.923664,9
0.07678223,-0.2208252,0.13018799,0.29007635,0.54198474,-3.6259542000000002,9
0.074157715,-0.22369385,0.12084961,-0.84732825,0.8854962,-4.2061067,9
0.07659912,-0.22534179999999995,0.12786865,0.5496183000000001,0.40458015,-4.89313,9
0.07019043,-0.21923828,0.12121582,0.32061067,1.4580153,-4.931298,9
0.07574463,-0.21942139,0.12573242,-0.10687023,1.6259542,-4.908396700000001,9
0.07867432,-0.21966553,0.11755371,0.47328246,2.2137403,-5.984732599999999,9
0.079956055,-0.21606445,0.12487793,0.39694658,0.27480915,-4.2824425999999995,9
0.07360839999999999,-0.21978760000000003,0.12701416,0.71755725,2.6488549999999997,-5.8244276,9
0.074279785,-0.21984863,0.12463379,1.6259542,1.5496184,-5.1984735,9
0.08270264,-0.21569824,0.12701416,0.8015267,1.5343511,-3.1374047000000003,9
0.0769043,-0.22467041,0.123168945,0.7557252,0.90076333,-3.5038167999999996,9
0.07971191400000001,-0.21777344,0.12731934,1.6335878000000001,0.9465648999999999,-3.5801528,9
0.070495605,-0.21887207,0.12597656,1.9007633999999998,0.47328246,-3.6030532999999996,9
0.07946777,-0.22406006,0.12335205,0.57251906,2.7709923,-2.8931298,9
0.075683594,-0.21673584,0.12536621,-0.48854962,2.0,-4.3816795,9
0.07092285,-0.21520996,0.12585449,0.045801528,2.3282442000000003,-7.3129773,9
0.07714844,-0.22094727,0.12725830000000002,-0.46564886,-0.07633588,-5.6106873,9
0.08087158,-0.21655273,0.12377930000000001,-0.061068702,1.2977100000000001,-4.396946400000001,9
0.07293701,-0.21832275,0.12542725,-0.9389313,1.4198473999999999,-3.206107,9
0.079956055,-0.22052002,0.12536621,2.206107,2.8473282,-4.4656487,9
0.08569336,-0.22076416,0.12908936,0.8778626,0.39694658,-7.0534353,9
0.072143555,-0.22180176,0.11981201,-0.47328246,0.39694658,-5.7328243,9
0.07287598,-0.22161865,0.12225342,0.6946565,0.39694658,-5.343511599999999,9
0.07446289,-0.22033691,0.12219238,0.39694658,0.8244275,-4.7480917,9
0.06628418,-0.22143555,0.12365723,-0.13740458,-0.022900764,-4.076336,9
0.07916260000000001,-0.22015381,0.12225342,1.8015267,0.28244275,-5.8244276,9
0.079589844,-0.22406006,0.13153076,-0.7633588000000001,0.7480916,-3.3969467000000004,9
0.07067871,-0.21673584,0.12286377,1.4732825,0.2519084,-4.2519083,9
0.080078125,-0.21844482,0.123168945,1.3358778999999998,0.6793893,-2.3435113,9
0.07989502,-0.22631836,0.13092041,1.0992366000000002,0.31297709999999995,-4.7557254,9
0.0703125,-0.21795654,0.12182617,0.7251908,-1.3358778999999998,-4.442748,9
0.079956055,-0.21881104,0.12512207,0.045801528,0.54198474,-5.6488547,9
0.07781982400000001,-0.21173096,0.12237549,1.3282443000000002,0.015267176,-3.6946564,9
0.08496094,-0.22265625,0.119262695,-0.8396947,-0.14503817,-4.885496,9
0.08093262,-0.22064209,0.09924316400000001,-0.6488550000000001,1.9541985,-1.0534351,9
0.08166504,-0.22479248,0.13226318,3.3816792999999996,1.1450381,-4.4885497,9
0.07708739999999999,-0.22027588,0.12432861,0.122137405,-0.8396947,-6.6488547,9
0.07885742,-0.21813965,0.1270752,0.49618322,1.3435115,-3.793893,9
0.074157715,-0.21771239999999997,0.12359619,-0.46564886,0.259542,-2.8015267999999995,9
0.081848145,-0.21759033,0.11938476599999999,1.6564884999999998,1.1526718,-6.6946563999999995,9
0.07946777,-0.21630860000000002,0.12225342,0.053435113,0.77099234,-4.664122,9
0.07507324,-0.22314453,0.12835693,1.1374046,1.7099236,-6.4274807,9
0.06933594,-0.22515869,0.12121582,-0.129771,2.206107,-3.961832,9
0.08093262,-0.21905518,0.15356445,0.70229006,1.2519083999999998,-2.9694657,9
0.07263183599999999,-0.22094727,0.12249756,0.27480915,0.015267176,-4.1984735,9
0.07745361,-0.22467041,0.11938476599999999,0.8091603,-0.122137405,-4.0458016,9
0.08300781,-0.21734619,0.12725830000000002,-1.519084,-0.114503816,-5.2977099999999995,9
0.07269287,-0.21173096,0.121154785,-0.29007635,1.259542,-5.7175574000000005,9
0.07159424,-0.22589111,0.12170410000000002,-1.0610687,3.8015267999999995,-4.885496,9
0.07232666,-0.22216797,0.12768555,0.10687023,-0.34351146,-4.3816795,9
0.08203125,-0.21704102,0.12841797,2.1755726,0.52671754,-4.5038165999999995,9
0.06652832,-0.22192383,0.119262695,0.18320611,0.8015267,-6.396946400000001,9
0.08428955,-0.21722412,0.121154785,-1.221374,1.961832,-3.9694656999999998,9
0.07122803,-0.21893310000000002,0.12835693,-0.06870229,-0.259542,-4.0229006,9
0.07232666,-0.21868896,0.12158203,-1.6946564999999998,0.9389313,-4.366412,9
0.078063965,-0.22369385,0.12878418,-0.52671754,0.41221374,-6.5419846,9
0.07250976599999999,-0.22283936,0.12554932,-0.23664123,0.16793893,-4.1984735,9
0.06488037,-0.22198486,0.11627197,0.6335878,0.259542,-7.458015400000001,9
0.08630371,-0.22106934,0.12011719,-1.0687023,0.5648854999999999,-6.908396700000001,9
0.07476807,-0.222229,0.12426758,0.41221374,0.17557251,-5.8702292,9
0.07684326,-0.22058105,0.12524414,3.3358779999999997,1.4656489,-4.4961834000000005,9
0.07879639,-0.22149658,0.11846924,-0.9236641,0.29007635,-6.5801525,9
0.07312012,-0.22076416,0.12121582,-0.36641222,1.2900764,-3.091603,9
0.07507324,-0.22406006,0.12518310000000002,-0.38931298,1.8549619,-4.5725193,9
0.08435058599999999,-0.22198486,0.12670898,3.4198472,-1.0534351,-4.0305343,9
0.07202148400000001,-0.22839355,0.12670898,0.0,1.8473282,-3.1984732000000005,9
0.068359375,-0.22399902,0.121154785,1.0610687,-0.122137405,-5.2442746,9
0.08728027,-0.22290039,0.12390137,0.2977099,0.40458015,-2.129771,9
0.08361816400000001,-0.21978760000000003,0.12432861,-1.4732825,1.7557251,-2.7557251,9
0.06939697,-0.21582031,0.122558594,0.43511450000000007,0.099236645,-3.40458,9
0.07684326,-0.21881104,0.11950683599999999,0.3053435,2.2442749,-4.3893127,9
0.07800293,-0.22900389999999998,0.12249756,1.0839695,1.5801526000000001,-5.259542,9
0.07373047,-0.22521973,0.12298584,1.259542,0.8778626,-4.587786,9
0.074157715,-0.21789551,0.11828613,0.5801527,0.79389316,-3.8549618999999997,9
0.06085205,-0.22192383,0.13433838,-0.8015267,2.465649,-5.1755724,9
0.08227539,-0.22735596,0.11804199,1.961832,3.5419848,-3.0076337000000004,9
0.07592773400000001,-0.22552489999999997,0.11743164,0.08396947,0.6870229,-5.0,9
0.078186035,-0.22265625,0.121276855,0.86259544,1.6717557,-4.335878,9
0.078063965,-0.22320557,0.12750244,1.2366412,1.9007633999999998,-2.4503817999999997,9
0.07733154,-0.22088623,0.1227417,-0.34351146,1.519084,-4.473282299999999,9
0.07647705,-0.2166748,0.12438965,1.9160305,1.4045801000000002,-3.465649,9
0.06988525400000001,-0.22991943,0.12402344,0.83206105,1.1068702,-5.068702,9
0.074401855,-0.21411133,0.11395264,1.3053435,2.6793892,-4.9389315,9
0.07061767599999999,-0.23132324,0.124938965,0.66412216,0.21374045,-3.206107,9
0.074401855,-0.21862793,0.12219238,-0.21374045,2.8244274,-4.3206105,9
0.07159424,-0.22558594,0.12713623,0.45038167,1.7175573,-5.412214,9
0.07147217,-0.22351074,0.11920166,1.9541985,1.6946564999999998,-4.671755999999999,9
0.06695557,-0.21948242,0.12280273400000001,-0.31297709999999995,0.2519084,-3.7633588,9
0.07232666,-0.21643066,0.12335205,0.66412216,0.35114503,-4.908396700000001,9
0.07708739999999999,-0.22332764,0.12408447,0.27480915,1.4427481000000002,-1.480916,9
0.068481445,-0.22436523,0.12194824,0.83206105,1.0229008,-3.832061,9
0.08282471,-0.21862793,0.12908936,0.08396947,1.2137405,-5.5801525000000005,9
0.08258057,-0.22290039,0.12780762,0.03816794,0.58778626,-3.8473281999999998,9
0.07128906,-0.22290039,0.123535156,0.21374045,0.35114503,-4.2900763,9
0.07379150400000001,-0.22033691,0.12725830000000002,0.8167939000000001,1.8778626,-3.3129769999999996,9
0.06793213,-0.21673584,0.12109375,1.5496184,0.96183205,-1.7251908999999999,9
0.07891846,-0.22015381,0.12261963,1.7480916000000002,1.7404580000000003,-3.9541983999999997,9
0.07678223,-0.22259521,0.12243652,0.32824427,2.816794,-4.0839696000000005,9
0.07977295,-0.22186279999999997,0.12170410000000002,0.8015267,1.0076336,-4.9389315,9
0.08361816400000001,-0.21862793,0.0914917,-1.7786259999999998,3.59542,-0.7557252,9
0.07501221,-0.22564697,0.11840819999999999,0.7099236999999999,0.32824427,-4.396946400000001,9
0.0769043,-0.21502686,0.117370605,0.8854962,0.43511450000000007,-4.671755999999999,9
0.07464599599999999,-0.22094727,0.12072754,1.3969465,1.8625953999999998,-2.9694657,9
0.07775879,-0.21832275,0.12432861,-0.091603056,-1.389313,-2.7099237,9
0.07952881,-0.22106934,0.11773682,0.60305345,0.610687,-7.114503999999999,9
0.07574463,-0.21716309,0.13031006,1.6717557,0.22137405,-3.908397,9
0.06768799,-0.22564697,0.12884521,-0.45038167,1.2519083999999998,-3.29771,9
0.07421875,-0.22039795,0.12152099599999999,0.86259544,1.8167938999999997,-3.053435,9
0.07287598,-0.22296143,0.14666748,-0.8778626,3.053435,-2.9389312000000003,9
0.07354736,-0.22265625,0.12097168,0.23664123,1.6717557,-5.9923663000000005,9
0.076049805,-0.22137451,0.12908936,1.5343511,0.34351146,-3.3816792999999996,9
0.07714844,-0.22033691,0.12854004,0.36641222,0.65648854,-4.9694657,9
0.07775879,-0.21990967,0.12774658,0.54198474,0.8702290000000001,-3.6412212999999998,9
0.06933594,-0.22357178,0.13000488,1.1984733,1.0229008,-2.2442749,9
0.06640625,-0.21594238,0.12109375,0.03816794,1.5419847,-4.3816795,9
0.07678223,-0.22686768,0.12927246,1.4351145,1.0992366000000002,-5.015267400000001,9
0.07757568,-0.21960449,0.12963867,2.2824428,1.4427481000000002,-3.7709922999999996,9
0.07849121,-0.21960449,0.13366699,-1.7557251,3.2290077,-3.3893129999999996,9
0.07464599599999999,-0.22589111,0.11816406,0.21374045,0.96183205,-3.6793892,9
0.08306885,-0.22143555,0.11938476599999999,-1.1221374,2.427481,-4.2442746,9
0.08013916,-0.22229004,0.12664795,0.091603056,0.8778626,-5.847328,9
0.07318115,-0.2244873,0.12713623,-0.20610687,0.2977099,-3.8549618999999997,9
0.08117676,-0.22009277,0.12652588,0.9312976999999999,0.9389313,-2.0687022,9
0.08142089999999999,-0.22509766,0.12640381,0.045801528,2.0,-3.2595419999999997,9
0.07708739999999999,-0.21362305,0.12225342,2.4885497,1.2748091000000001,-3.6870230000000004,9
0.08001709,-0.21899414,0.12408447,-0.29007635,3.3664122000000005,-6.6335880000000005,9
0.078063965,-0.22033691,0.12280273400000001,0.4274809,1.5114504,-3.961832,9
0.07458496,-0.22180176,0.12097168,-2.0992367,1.2366412,-3.4274809999999998,9
0.06970215,-0.21789551,0.12646484,1.221374,1.1374046,-3.5114503,9
0.06414795,-0.22155762,0.12371826,1.3587786,0.7633588000000001,-2.6259542000000002,9
0.07476807,-0.22229004,0.12725830000000002,0.8549618,1.7480916000000002,-5.8778625,9
0.070495605,-0.21789551,0.12335205,-0.28244275,1.1145038999999999,-4.4580154,9
0.07916260000000001,-0.22235107,0.12121582,-3.0992367,1.0992366000000002,-4.1679387000000006,9
0.07897949,-0.22576904,0.11895752,0.86259544,0.70229006,-4.221374,9
0.07373047,-0.22442627,0.13006592,-0.77099234,1.9236640999999999,-3.1221373,9
0.06365967,-0.21844482,0.12365723,1.6717557,1.1603054,-4.412214,9
0.080078125,-0.22442627,0.12121582,1.3587786,0.19083970000000003,-5.7557254,9
0.07354736,-0.22131348,0.12310791,0.67175573,2.832061,-6.412214,9
0.07159424,-0.21875,0.12322998,-0.08396947,1.4885496,-5.854962,9
0.07348633,-0.22576904,0.11907959,0.114503816,0.16793893,-5.480916000000001,9
0.07672119,-0.21929932,0.1239624,0.022900764,2.1374047000000003,-6.839694500000001,9
0.07489014,-0.22991943,0.12579346,0.6793893,1.3816794,-4.0076336999999995,9
0.06298828,-0.21948242,0.11462402,0.19083970000000003,1.5343511,-4.5114503,9
0.06964111,-0.22149658,0.1296997,-1.0152671,-0.14503817,-5.3129773,9
0.07086182,-0.22430419999999998,0.12530518,0.99236643,2.6259542000000002,-5.2290077,9
0.07165527,-0.21691895,0.12646484,-0.099236645,1.7633588,-4.5496182,9
0.06866455,-0.22277832,0.12219238,-0.045801528,0.14503817,-4.221374,9
0.07446289,-0.22381592,0.12377930000000001,-0.45038167,0.114503816,-3.5648854,9
0.081848145,-0.22381592,0.12384033,0.45801526,1.7175573,-4.5419846,9
0.07940674,-0.21862793,0.12322998,0.58778626,0.9236641,-5.0,9
0.07354736,-0.21685791,0.12237549,-0.35877863,0.16030534,-4.4351144,9
0.0769043,-0.21691895,0.12139892599999999,0.6335878,-0.08396947,-2.832061,9
0.07171631,-0.21997070000000005,0.12506104,0.45801526,-1.1908396,-4.4198474999999995,9
0.0703125,-0.22100830000000002,0.12915039,2.1374047000000003,0.08396947,-4.2671757,9
0.07061767599999999,-0.21697998,0.120910645,0.38931298,0.97709924,-4.847328,9
0.06842041,-0.21649169999999998,0.12207031,2.5877862,-0.8396947,-3.1145039,9
0.07623291,-0.21954346,0.12689209,0.46564886,0.32824427,-5.236641400000001,9
0.068359375,-0.21447754,0.11761474599999999,-0.73282444,-0.39694658,-8.061069,9
0.07360839999999999,-0.22045898,0.12237549,-0.97709924,0.2977099,-5.190840000000001,9
0.07299805,-0.2244873,0.12176514,1.6259542,-0.40458015,-6.0229006,9
0.08135986,-0.21484375,0.12817383,2.6183207000000004,0.122137405,-4.5648856,9
0.07653808599999999,-0.22296143,0.11755371,1.2824427,-0.5801527,-6.2442746,9
0.076049805,-0.21942139,0.12377930000000001,0.26717559,-0.030534351,-4.664122,9
0.07977295,-0.21588135,0.12866211,0.38167940000000006,0.38167940000000006,-4.7938933,9
0.079956055,-0.21783447,0.10571289,-0.3740458,2.2366412,-2.4351146,9
0.07922363,-0.22314453,0.124816895,-0.71755725,0.061068702,-4.9389315,9
0.07696533,-0.22070312,0.12310791,-0.061068702,2.6793892,-3.091603,9
0.07580566400000001,-0.22393799,0.12982178,0.54198474,0.48854962,-4.526717700000001,9
