Acc_X,Acc_Y,Acc_Z,Gyr_X,Gyr_Y,Gyr_Z,Label
0.30102540000000005,-0.14019775,-0.06469726599999999,-146.80916000000002,76.21374,-90.15267,9
0.25390625,-0.10394287,-0.040161132999999995,-12.442748,44.687022999999996,-82.9771,9
0.25042725,-0.054382324,-0.0034790040000000004,26.08397,-9.030535,-80.381676,9
0.27270508,-0.028869628999999997,-0.01739502,-56.412212,-36.83206,-67.56489,9
0.28027344,-0.05712890599999999,-0.027404785,-156.83969,3.908397,-42.793890000000005,9
0.2548828,0.049560547,0.043945312,35.17557,-15.877863,-20.687023,9
0.22674560000000002,0.09442139,0.05053711,-131.22137,-0.18320611,-11.320611,9
0.25604248,-0.051574707000000004,0.05432129,-250.1374,-42.351147,-19.87023,9
0.27679443,-0.10491943,-0.124938965,-59.541985,26.08397,-54.603054,9
0.24316406,0.000488,0.030151367000000002,181.51144,32.694656,-77.89313,9
0.23828125,0.07653808599999999,0.0637207,35.603054,-31.396946000000003,-64.16031,9
0.27722168,0.051940917999999996,-0.007507324,-179.1145,-67.80153,-42.381679999999996,9
0.2755127,-0.019897461,-0.00390625,-149.45801,-11.534351,-38.183205,9
0.25793457,-0.032958984,-0.019348145,6.6412214999999994,-34.08397,-55.412212,9
0.26568604,0.032592773,0.026123047000000003,16.946566,-9.19084,-49.0229,9
0.2562256,0.026733398,0.029907227,-61.801525,-21.480917,-36.053436,9
0.26782227,0.0013427729999999998,0.031677246,-90.41221999999999,-27.213741,-31.595419,9
0.26409912,-0.005432129,0.02746582,-65.44275,-22.297710000000002,-25.145039,9
0.26153564,-0.013061523,0.024841309,-65.70229,-23.137404999999998,-20.587785999999998,9
0.26202393,-0.017700195,0.02331543,-33.48855,-14.923664000000002,-11.526717,9
0.2598877,-0.011474608999999998,0.030822753999999997,-19.206106,-6.4503818,-3.0305343,9
0.25616455,0.000793,0.04272461,-13.816792999999999,-3.6106870000000004,3.5648854,9
0.25854492,0.003051758,0.042053223,-41.427483,-6.526717700000001,12.152672,9
0.25354004,-0.002685547,0.030456543,-55.038166000000004,-2.3664122000000005,21.122137,9
0.25213623,-0.019714355,0.02319336,-48.53435,2.3740457999999998,28.694656,9
0.25665283,-0.014892578,0.026062012000000002,-20.435114000000002,8.076336,36.91603,9
0.25708008,-0.003295898,0.028747559,-21.839695000000003,10.198473,47.55725,9
0.24658203,0.003967285,0.021484375,-37.343509999999995,6.10687,60.49618,9
0.26226807,-0.005432129,0.007873535,-44.694656,3.7480917000000002,68.79389,9
0.26550293,-0.017333984,0.004638672,-54.030533,5.7557254,77.41221999999999,9
0.2640381,-0.027770996000000003,-0.012145996000000001,-30.717558,4.9007635,79.40458000000001,9
0.27557373,-0.023498535,-0.010742188,0.06870229,5.3816795,78.381676,9
0.28649902,-0.012817383,-0.031433105,14.923664000000002,7.7480917,79.183205,9
0.28509520000000005,-0.033996582000000004,-0.017456055,26.145039,16.236639999999998,72.89313,9
0.29248047,-0.028381347999999997,-0.03741455,63.969467,10.618319999999999,66.12214,9
0.27722168,-0.004333496,-0.027954102,102.618324,27.595419,62.793890000000005,9
0.25836182,-0.011962891000000002,-0.010314941,59.427482999999995,17.167938,59.12214,9
0.26538086,-0.021118164,-0.02178955,28.717558,3.6106870000000004,58.893130000000006,9
0.2518921,-0.02355957,-0.037353516,57.938930000000006,6.2824425999999995,53.335876,9
0.24700928,-0.010070800999999999,-0.027282715,72.69466,1.0229008,50.244274,9
0.24224854,-0.014282227,-0.026000977,34.519085,-5.0305343,48.351147,9
0.23327637,-0.021606445,-0.030334472999999997,22.404581,-3.4961832000000004,42.76336,9
0.23535156,-0.03692627,-0.030944824,61.137405,-16.236639999999998,33.572517,9
0.23291016,-0.028625487999999998,-0.015014648,68.69466,-17.961832,22.122137,9
0.23150635,-0.027038574,-0.014465332,40.564884,-19.702289999999998,16.847328,9
0.23010254,-0.038635254,-0.012145996000000001,27.541984999999997,-27.862595000000002,7.603053599999999,9
0.23583984,-0.04443359400000001,-0.014404297,43.251907,-26.900763,-1.9465648999999998,9
0.23809814,-0.046447754,-0.006652831999999999,46.992367,-23.404581,-10.961832000000001,9
0.23223877,-0.042541504,-0.003967285,41.572517,-22.732824,-16.244274,9
0.24127197,-0.043945312,0.002441406,28.122137,-20.671754999999997,-20.687023,9
0.2401123,-0.04425049,0.010253906,18.351145000000002,-18.57252,-24.57252,9
0.25036620000000004,-0.048706055,0.00592041,4.946564700000001,-16.10687,-26.32061,9
0.2623291,-0.057922363,0.01171875,1.5877863,-11.458015,-31.717558,9
0.26348877,-0.064941406,0.014465332,6.5114503,-1.8015267,-33.48855,9
0.27703857,-0.0690918,0.016784668,11.236641,3.7099237,-33.55725,9
0.29223633,-0.054748535,0.016174316,12.755725,8.053435,-32.114502,9
0.31451416,-0.033813477,0.007019043000000001,0.60305345,2.4580152,-33.0,9
0.31378174,-0.02722168,-0.016967773000000002,-42.076336,14.961832000000001,-22.664122,9
0.2923584,-0.04827881,0.027160645,-109.56488999999999,20.190839999999998,-9.038167999999999,9
0.26623535,-0.07293701,-0.0014648439999999999,-85.53435,-2.427481,-2.29771,9
0.24945068,-0.055114746,0.019836426,-68.01527,1.0687023,12.816792999999999,9
0.23602295,-0.045166015999999996,0.009033203,-92.816795,-3.8778627,21.984734,9
0.23150635,-0.06573486,-0.003662109,-95.40458000000001,6.3053436,23.61832,9
0.22381592,-0.08294678,-0.004272461,-50.15267,8.832061,19.122137,9
0.23236084,-0.07098389,-0.000916,5.259542,3.778626,12.083969,9
0.24438477,-0.05224609400000001,0.001037598,19.12977,18.885496,1.0152671,9
0.24206543,-0.04119873,0.002319336,6.4351144,26.213741,-6.1221375,9
0.24450684,-0.040527344,0.0034179690000000003,-15.282442999999999,23.961832,-6.6946563999999995,9
0.23919678,-0.04449463,-0.000366,-36.129771999999996,23.809160000000002,-0.35114503,9
0.24322510000000003,-0.04925537,0.00390625,-43.091602,15.290076000000001,6.7862597000000004,9
0.25909424,-0.051452637,-0.019226074,-35.625954,2.5954200000000003,12.709924,9
0.25769043,-0.052368164,-0.007507324,-35.267174,16.114504,15.259541500000001,9
0.26464844,-0.06964111,-0.007324219,-13.236641,6.4580154,12.236641,9
0.2630005,-0.06549072,-0.008056641,20.717558,-2.534351,8.854961,9
0.24835205,-0.062316895,-0.00793457,44.114502,1.3206106000000002,6.5801525,9
0.23498535,-0.06103515599999999,0.004455565999999999,61.801525,-2.1145039,2.8015267999999995,9
0.22882080000000002,-0.06085205,-0.000183,75.66412,-4.2748094000000005,-2.961832,9
0.22589111,-0.058044434000000006,0.017333984,89.618324,-6.8015265,-8.389313000000001,9
0.22454834,-0.05218506,0.017333984,96.51145,-8.366412,-12.564885,9
0.23132324,-0.058654785,0.013671875,97.183205,-8.541985,-17.770992,9
0.24096679999999995,-0.057861328,0.014099121000000001,100.35878000000001,-7.8244276,-21.473282,9
0.23571777,-0.05895996,0.006469727,95.137405,-4.740458,-23.458015,9
0.21649169999999998,-0.06402588,0.020690918,96.52672,-4.396946400000001,-18.068703,9
0.22998047,-0.06719971,0.017211914,99.94655999999999,-10.984733,-16.358778,9
0.25878906,-0.064575195,0.007568359,110.618324,-19.030535,-15.564885,9
0.29241943,-0.05615234400000001,0.006591797,118.34351000000001,-10.877863,-15.80916,9
0.28973390000000004,-0.06072998,-0.003845215,111.31298000000001,-2.946565,-8.816792999999999,9
0.2923584,-0.06781006,-0.012390136999999999,103.496185,3.9694656999999998,3.5190839999999994,9
0.27624512,-0.06591797,-0.001708984,110.221375,1.8015267,15.80916,9
0.25775146,-0.053894042999999996,0.00189209,100.48092,8.274809,34.076336,9
0.24749756,-0.054870605,0.003051758,94.35878000000001,-1.0992366000000002,49.725190000000005,9
0.26806640000000004,-0.051635742000000005,-0.006408690999999999,87.41984599999999,-2.7175572,56.83206,9
0.2670288,-0.044799805,-0.013427733999999998,85.35114,8.931297,63.702290000000005,9
0.26959229999999995,-0.04119873,-0.009765625,69.80153,8.114504,67.908394,9
0.26342773,-0.036254882999999995,-0.011169433999999999,55.320609999999995,6.442748,70.58015400000001,9
0.2602539,-0.026611327999999997,-0.018981934,36.648853,4.7709923,74.503815,9
0.2479248,-0.029846191,-0.02746582,9.534351,6.038168,77.57252,9
0.24127197,-0.037109375,-0.028198242000000002,-1.519084,-1.091603,76.91603,9
0.24188232,-0.03564453,-0.027893066,15.038167999999999,-14.061069,70.98473,9
0.24377441,-0.034362792999999996,-0.028137207,19.709923,-21.450382,58.82443000000001,9
0.25280762,-0.040222167999999996,-0.02923584,12.106871,-23.801527,48.78626,9
0.23529053,-0.04638672,-0.019348145,20.076335999999998,-24.740458,35.709922999999996,9
0.22436523,-0.04473877,-0.02154541,39.137405,-32.755726,22.366413,9
0.21343994,-0.04559326,-0.017211914,41.129771999999996,-35.53435,12.625955000000001,9
0.21795654,-0.043701172,-0.017944336,52.885498,-38.992367,3.923664,9
0.22717285,-0.03778076,-0.01171875,59.47328,-40.480915,-1.0152671,9
0.22900389999999998,-0.028625487999999998,-0.007751465,51.274809999999995,-40.160305,-5.3893127,9
0.23510742,-0.028747559,-0.008300781,33.74046,-45.748093,-11.732824,9
0.23779297,-0.031433105,-0.002441406,25.053434,-44.954197,-18.564885999999998,9
0.23510742,-0.03515625,-0.000671,13.839695,-44.618320000000004,-26.755726,9
0.24023438,-0.041015625,0.001037598,12.671756,-44.320609999999995,-39.648853,9
0.2515869,-0.040222167999999996,-0.003540039,14.167939000000002,-36.809162,-52.099236,9
0.26446533,-0.03564453,-0.010803223,13.396947,-27.595419,-63.351147,9
0.27380370000000004,-0.033935547,-0.014343261999999999,4.9923663000000005,-21.969465,-71.05344000000001,9
0.2831421,-0.030700684,-0.01739502,-10.351144999999999,-16.656488,-75.32825,9
0.29003906,-0.030517577999999997,-0.027404785,-33.374046,-14.664123000000002,-73.854965,9
0.28656006,-0.03894043,-0.026916503999999997,-51.603054,-11.488549,-67.618324,9
0.28375244,-0.043029785,-0.032226562,-56.47328,-15.389313000000001,-62.068703,9
0.286438,-0.04711914,-0.041381836,-53.862595,-12.732824,-56.435116,9
0.28015137,-0.046142578,-0.042907715,-44.816795,-5.9694657,-49.83206,9
0.2705078,-0.055725098,-0.034118652,-30.93893,-6.4580154,-47.76336,9
0.2783203,-0.049194336,-0.030212402000000003,-12.854961,-2.3740457999999998,-46.10687,9
0.27783203,-0.05303955,-0.01965332,-0.45801526,4.7022900000000005,-41.664124,9
0.27618408,-0.05505371,-0.006408690999999999,12.358779,8.893129,-37.610687,9
0.29174805,-0.03479004,-0.010375977,26.503816999999998,4.038168,-36.82443,9
0.32135009999999997,-0.027282715,-0.018859863,10.198473,6.3511453,-39.14504,9
0.31152344,-0.014770508,-0.034118652,-41.396946,40.297709999999995,-30.671754999999997,9
0.24102783,-0.044921875,0.006652831999999999,-88.03817,55.435116,-15.229007999999999,9
0.21502686,-0.06567383,-0.011474608999999998,-67.854965,23.412214000000002,-10.389313000000001,9
0.2265625,-0.0769043,-0.0032348629999999997,-38.687022999999996,18.076335999999998,-13.335876999999998,9
0.23413086,-0.07434082,-0.01348877,-13.40458,26.42748,-10.21374,9
0.24645996,-0.07745361,-0.016174316,18.854961,36.099236,-6.2977099999999995,9
0.24829102,-0.06506348,-0.013000488000000001,37.389313,39.908398,3.183206,9
0.246521,-0.04522705,-0.01184082,23.351145000000002,37.908398,15.21374,9
0.2524414,-0.046569824,-0.024536132999999998,-0.47328246,35.549618,26.450382,9
0.24468994,-0.0647583,-0.040527344,-7.2442746,30.954199,37.656490000000005,9
0.24810791,-0.07092285,-0.03375244,9.954199000000001,24.809160000000002,43.900764,9
0.26367188,-0.07385254,-0.023864746000000003,35.664124,10.022901,46.923664,9
0.28015137,-0.06994629,-0.023376465,55.335876,12.870229,51.335876,9
0.26568604,-0.06896973,-0.0211792,67.9313,13.992367000000002,60.007633,9
0.26159668,-0.0690918,-0.014648438,83.175575,5.335878,66.76335999999999,9
0.27746582,-0.0769043,0.009948731,93.31298000000001,3.6870230000000004,73.63359,9
0.2888794,-0.06988525400000001,0.004760742,123.01527,6.5725193,82.59541999999999,9
0.2942505,-0.039733887,0.018798828,133.47328000000002,9.419847500000001,92.43511,9
0.30010986,-0.023864746000000003,0.013305663999999998,106.79388999999999,6.763358599999999,98.19084000000001,9
0.29492188,-0.027954102,0.03253174,77.15267,14.656488000000001,102.0458,9
0.27764893,-0.03668213,0.046813965,68.47328,11.19084,103.64886,9
0.26068115,-0.038269042999999996,0.046020507999999995,59.38168,8.366412,99.83206,9
0.23699951,-0.041931152,0.04522705,50.549618,16.793894,93.54961999999999,9
0.21691895,-0.051879882999999995,0.046813965,48.183205,9.893129,83.12977,9
0.206604,-0.049194336,0.044677734000000004,63.12214,9.229008,67.57252,9
0.19885254,-0.044677734000000004,0.04724121,68.84733,4.5496182,55.809162,9
0.21081543,-0.037109375,0.04541015599999999,55.106869999999994,-9.122137,39.068703,9
0.23754883,-0.037231445,0.034484863,42.473279999999995,-15.503817000000002,18.87023,9
0.2536621,-0.04119873,0.037902832000000004,35.610687,-10.129771,0.7633588000000001,9
0.24621582,-0.053710938,0.037231445,19.984734,1.8167938999999997,-11.755725,9
0.24627686,-0.06048584,0.03466797,35.435116,-14.557251999999998,-21.564885999999998,9
0.24676514,-0.061828613,0.033569336,40.358779999999996,-2.3358779999999997,-19.38168,9
0.22857666,-0.05633545,0.031311035,44.580154,1.8625953999999998,-10.595419999999999,9
0.22674560000000002,-0.044799805,0.029663086,39.12214,-11.312977,0.8091603,9
0.230896,-0.028503418,0.023254395,25.282442,-19.38168,14.984732999999999,9
0.23352051,-0.036865234,0.023376465,-5.7099237,-22.244274,21.221375,9
0.24176025,-0.03692627,0.011901856,-12.19084,-25.564885999999998,24.450382,9
0.23095703,-0.039855957000000004,0.016479492,-13.022901,-22.305344,21.076335999999998,9
0.22021484,-0.050720215,0.025390625,-10.305344,-33.0,11.038167999999999,9
0.22595215,-0.054992676,0.016967773000000002,7.6870227,-40.183205,-5.854962,9
0.22259521,-0.050598145,0.01727295,33.045803,-35.007633,-22.61832,9
0.22802734,-0.04638672,0.03515625,51.435116,-35.473279999999995,-40.274809999999995,9
0.24243164,-0.04541015599999999,0.040222167999999996,53.923664,-39.84733,-53.35878,9
0.25073242,-0.032287598,0.035095215,48.748093,-30.91603,-63.40458,9
0.26757812,-0.026062012000000002,0.035583496,24.374046,-25.740458,-68.29771,9
0.26971436,-0.032226562,0.03741455,-10.435115,-24.274809,-75.05344000000001,9
0.28131104,-0.035461426000000004,0.014526367,-38.251907,-16.160304999999997,-78.10687,9
0.28070068,-0.028076172000000003,0.014648438,-55.083969999999994,-8.053435,-77.503815,9
0.28326416,-0.026428222999999997,0.008605957,-82.87786,-6.328244000000001,-74.39695,9
0.28045654,-0.034118652,-0.001708984,-112.05344,-2.8091602000000004,-69.20611,9
0.27941895,-0.03869629,-0.003723145,-124.57252,-2.053435,-63.9771,9
0.27941895,-0.050720215,-0.012451172,-131.07634,-4.7709923,-61.16794,9
0.28582764,-0.06060791,-0.014892578,-121.67938999999998,2.9923662999999996,-56.67175699999999,9
0.28399658,-0.06604004,-0.032165527,-100.541985,10.038167999999999,-51.358779999999996,9
0.27508545,-0.06408691400000001,-0.025939941,-78.94655999999999,12.633588,-45.25954,9
0.27282715,-0.06677246,-0.026245117000000002,-59.687022999999996,12.244275,-37.358779999999996,9
0.26690674,-0.05987549,-0.027404785,-45.045803,15.328244,-28.709923,9
0.26275635,-0.055908203,-0.019226074,-47.48855,12.717557000000001,-21.709923,9
0.25683594,-0.05712890599999999,-0.016296387,-49.870228000000004,9.7786255,-13.717557000000001,9
0.24627686,-0.06109619,-0.016967773000000002,-49.603054,6.763358599999999,-8.068703,9
0.24511719,-0.06500244,-0.01953125,-49.198475,4.1603055,-3.129771,9
0.24664307,-0.06793213,-0.020812988,-36.541985,4.519083999999999,0.40458015,9
0.24481201,-0.072143555,-0.022644043,-24.541985,2.9847328999999996,3.465649,9
0.24969482,-0.068481445,-0.02130127,-12.404580000000001,2.3816792999999996,8.404580000000001,9
0.25439453,-0.06896973,-0.022216797000000003,2.8015267999999995,-0.13740458,11.557252,9
0.25823975,-0.06811523400000001,-0.017150878999999997,12.198473,-3.3129769999999996,17.877863,9
0.26605225,-0.06616211,-0.016357422,18.480917,-5.816794,25.190839999999998,9
0.26629640000000004,-0.06530762,-0.01574707,28.969465000000003,-8.007633,33.709922999999996,9
0.27264404,-0.062683105,-0.012756348,40.900764,-9.083969,45.21374,9
0.27770996,-0.05633545,-0.003601074,48.351147,-9.725191,55.21374,9
0.27728270000000005,-0.051208496,-0.003845215,54.16030500000001,-9.78626,62.450382,9
0.28430176,-0.046020507999999995,0.001037598,54.572517000000005,-9.877863,70.45038000000001,9
0.28881836,-0.038330078,0.003540039,56.633587,-7.7862597000000004,75.31298000000001,9
0.2888794,-0.03930664,0.00970459,49.87786,-4.763358599999999,75.84733,9
0.2748413,-0.037475586,0.005859375,55.351147,-2.9312978,77.25954399999999,9
0.26922607,-0.033203125,0.01739502,58.633587,-0.4427481,76.70229,9
0.26141357,-0.02923584,0.018371582,55.251906999999996,4.396946400000001,72.908394,9
0.2564087,-0.025268555,0.020446777,56.25954,9.870229,66.98473,9
0.2508545,-0.024719237999999998,0.023132324,47.83206,14.702291,58.969467,9
0.24890137,-0.029541016,0.02746582,41.85496,17.091601999999998,47.82443,9
0.24444580000000002,-0.026184082,0.026977539,36.82443,21.534351,39.045803,9
0.23370361,-0.007324219,0.026306152000000003,28.80916,24.854961,29.946565999999997,9
0.22979736,-0.016784668,0.033691406,8.2213745,24.450382,20.06107,9
0.23193360000000002,-0.022583007999999998,0.024902344,-11.045800999999999,22.183207,10.557252,9
0.23364258,-0.028320312,0.02166748,-18.664122,18.503817,0.8854962,9
0.23083496,-0.032043457000000004,0.016540527,-17.603054,16.137404999999998,-8.267176,9
0.22570801,-0.026306152000000003,0.025939941,-14.694656,17.167938,-15.80916,9
0.23742676,-0.026184082,0.023620605,-11.312977,11.862596,-24.145039,9
0.23461914,-0.022338867000000002,0.019226074,-18.320610000000002,11.625955000000001,-32.931297,9
0.23968506,-0.017211914,0.028625487999999998,-27.801527,9.938931,-41.030533,9
0.24133301,-0.018066406,0.016540527,-36.526720000000005,9.106871,-48.129771999999996,9
0.24694824,-0.022521972999999997,0.015319824,-38.641220000000004,7.40458,-54.969467,9
0.24597168,-0.026916503999999997,0.012145996000000001,-45.870228000000004,3.2824428,-60.541985,9
0.25549316,-0.030639648,0.006835938000000001,-49.679390000000005,2.9923662999999996,-66.0,9
0.25646973,-0.034118652,0.007568359,-47.946564,-1.3053435,-69.60305,9
0.2614746,-0.040283203,0.00592041,-49.030533,-1.221374,-71.05344000000001,9
0.2501831,-0.04107666,0.006835938000000001,-45.9771,-3.4809160000000006,-72.66412,9
0.26623535,-0.0423584,0.008300781,-37.206109999999995,-5.4961834000000005,-73.65649,9
0.27099609999999996,-0.041381836,0.011230469,-34.91603,-5.8015265,-71.54961999999999,9
0.27349854,-0.040527344,0.017333984,-33.480915,-4.2900763,-66.19084000000001,9
0.27459717,-0.041381836,0.021728516,-38.671757,-5.2977099999999995,-61.519085,9
0.26959229999999995,-0.044921875,0.025146484,-37.14504,-9.847328,-55.50382,9
0.26385498,-0.043640137,0.025878906,-26.70229,-5.3129773,-47.572517,9
0.25341797,-0.018066406,0.048583984000000004,-16.160304999999997,-11.916031,-46.251907,9
0.27386475,-0.005615234,0.056396484000000004,-18.404581,-19.419847,-49.183205,9
0.27868652,-0.00402832,0.059936523,-18.763360000000002,-7.80916,-46.748093,9
0.2748413,-0.002868652,0.05694580000000001,-15.358779,-1.9541985,-42.06107,9
0.26654053,0.005310059000000001,0.047058105,-17.87023,6.7328243,-34.129771999999996,9
0.2642212,0.004333496,0.049926757999999995,-32.992367,9.877863,-26.419846999999997,9
0.26184082,-0.017578125,0.047912598,-30.816793,12.053435,-20.190839999999998,9
0.2588501,-0.021240234,0.033569336,-16.030535,16.053434,-13.183207000000001,9
0.24322510000000003,-0.026306152000000003,0.036071777,-8.748092,19.137404999999998,-7.664122,9
0.24145508,-0.041503906,0.039245605,-8.061069,14.564885,-5.740458,9
0.23510742,-0.055603027,0.03338623,9.435115,16.167938,-5.4885497,9
0.23211669999999998,-0.061157227,0.03112793,23.587785999999998,13.954199,-3.2137403,9
0.24493408,-0.06347656,0.02545166,36.068703,6.763358599999999,-0.52671754,9
0.23968506,-0.06726074,0.024902344,43.82443,19.114504,8.824428,9
0.24749756,-0.07330322,0.029724121000000003,51.015266,8.305344,14.992367000000002,9
0.26220703,-0.07208252,0.025695799999999998,68.9771,6.2061067,26.045801,9
0.27703857,-0.070373535,0.025756836,75.175575,9.183207000000001,36.320609999999995,9
0.2890625,-0.06060791,0.0234375,88.03053,13.503817000000002,50.25954,9
0.29180908,-0.04827881,0.022277832,87.56489,23.305344,65.59541999999999,9
0.29449463,-0.036804199999999995,0.022766112999999998,82.30534,27.824427000000004,82.137405,9
0.29162598,-0.022949219,0.022094727,71.0458,29.503816999999998,96.57252,9
0.28552246,-0.010986328,0.02520752,49.694656,31.114503999999997,108.94656,9
0.28112793,-0.00390625,0.020812988,23.625954,29.671754999999997,116.25191000000001,9
0.27783203,-0.007873535,0.016418457,4.1603055,28.229008,121.72519,9
0.27740479999999995,-0.013977051,-0.001281738,-0.78625953,19.931297,117.091606,9
0.28601074,-0.011535645,0.006469727,-0.26717559,20.396946,111.62595,9
0.2942505,-0.014221191000000001,0.001037598,-3.2442749,16.877863,100.42748,9
0.29559326,-0.026367188,-0.0029296879999999997,5.0839696,7.541984599999999,88.67175,9
0.28497314,-0.010009766,-0.006408690999999999,13.908397,9.236641,81.63359,9
0.25482178,-0.007080078,0.001953125,4.2824425999999995,6.114504,75.84733,9
0.22644043,-0.014770508,0.01574707,-14.450381,-7.3129773,72.137405,9
0.21740723,-0.022399902000000003,0.004150391,15.854961,-18.809160000000002,62.74046,9
0.21612549,-0.007751465,0.018920898000000002,34.770992,-19.664122,53.427482999999995,9
0.22503662,-0.00177002,0.020629883,22.770992,-25.931297,39.961834,9
0.22906494,-0.006591797,0.007385254,22.526718,-17.541985,28.664121999999995,9
0.22229004,-0.001403809,0.019104003999999997,17.961832,-18.08397,10.21374,9
0.22827148,-0.003723145,0.018493652,4.6870227,-21.57252,-6.70229,9
0.23162842,-0.01727295,0.03277588,-5.145038,-21.992367,-25.320610000000002,9
0.23052979,-0.026916503999999997,0.028503418,-9.335877,-23.603054,-43.633587,9
0.24737549,-0.032470703,0.028137207,-14.557251999999998,-17.687023,-57.114502,9
0.25036620000000004,-0.028930664,0.02166748,-25.259542,-14.633588,-68.458015,9
0.2557373,-0.028076172000000003,0.023498535,-34.450382,-16.557251,-77.778625,9
0.26538086,-0.037475586,0.021911621000000003,-46.282444,-13.748092000000002,-84.69466,9
0.26922607,-0.042175292999999996,0.022521972999999997,-44.427483,-8.625955000000001,-90.12977,9
0.27062988,-0.050231934000000006,0.016967773000000002,-49.816795,-5.633588,-90.0229,9
0.28363037,-0.04321289,0.010070800999999999,-56.961833999999996,-2.3282442000000003,-91.03053,9
0.28320312,-0.04626465,0.00592041,-64.51145,2.2900763,-89.824425,9
0.29534912,-0.046813965,0.018432617,-67.66412,7.29771,-84.98473,9
0.2935791,-0.053100586,0.009094238000000001,-73.80915999999999,9.847328,-81.68701999999999,9
0.29058838,-0.049194336,0.010742188,-78.73283,11.442748,-75.45038000000001,9
0.2904663,-0.057922363,0.00177002,-92.458015,11.625955000000001,-71.0,9
0.2838745,-0.060791015999999996,-0.000366,-93.59541999999999,16.198473,-63.85496,9
0.27764893,-0.07733154,-0.002685547,-88.05344000000001,16.366413,-59.38168,9
0.2753296,-0.08374023400000001,-0.006225586,-70.76335999999999,17.374046,-50.51145,9
0.26843262,-0.09057617,-0.00769043,-49.923664,20.977098,-37.671757,9
0.255188,-0.08178711,-0.0034790040000000004,-30.213741,20.656488,-21.396946,9
0.24932861,-0.07543945,-0.005126953,-15.641221,14.877863,-3.5801528,9
0.25146484,-0.068847656,-0.005737305,-7.587786,3.3664122000000005,11.839694999999999,9
0.26037598,-0.0635376,-0.008666992,-12.580152499999999,3.1068702,28.244274,9
0.25665283,-0.05822754,-0.007507324,-5.7175574000000005,1.9007633999999998,41.366413,9
0.25543213,-0.05126953,-0.015930176,3.5801528,-4.0,53.603054,9
0.26086426,-0.04925537,-0.002258301,3.5114503,-1.8549619,65.091606,9
0.25994873,-0.06439209,-0.008544922,-13.305344,-9.2213745,70.47328,9
0.2637329,-0.046325684000000006,-0.013671875,47.007633,0.13740458,72.83969,9
0.2557373,-0.037597656,0.013793945,27.38168,-0.9541985000000001,81.57252,9
0.25671387,-0.06341553,0.011413574,-5.6412214999999994,-17.412214000000002,77.137405,9
0.25976562,-0.051513672,0.006347656,46.671757,-7.3511453,67.71755999999999,9
0.24975586,-0.031311035,0.005126953,44.870228000000004,-11.916031,59.633587,9
0.24877929999999995,-0.043823242000000005,0.010009766,36.984734,-19.114504,54.22900799999999,9
0.2514038,-0.051330565999999994,-0.001159668,52.44275,-15.969465,44.671757,9
0.24902344,-0.04168701,0.021606445,73.69466,-10.572519,33.358779999999996,9
0.25830078,-0.028747559,0.00970459,66.27481,-12.358779,26.557251,9
0.2508545,-0.032592773,0.008239746,62.931297,-10.206107000000001,20.007633,9
0.26165770000000005,-0.030700684,0.013671875,61.885498,-7.480916000000001,13.59542,9
0.26940918,-0.04107666,0.019470215,60.15266999999999,-5.236641400000001,7.259542,9
0.26525879999999996,-0.046142578,0.030273438,61.419846,-1.8091604,3.3587787000000002,9
0.26068115,-0.03894043,0.023010253999999997,56.450382,2.4503817999999997,1.6030535,9
0.24633789,-0.034851073999999996,0.027770996000000003,42.396946,4.0076336999999995,5.603053599999999,9
0.23797607,-0.028503418,0.02508545,23.961832,3.2748091,10.854961,9
0.24407959,-0.033325195,0.027709961,14.610686999999999,-0.45038167,14.488548999999999,9
0.24517822,-0.037719727,0.020568848,13.870229,0.90076333,15.458015,9
0.25280762,-0.034423828,0.018554688,11.732824,3.832061,12.236641,9
0.24694824,-0.02722168,0.023010253999999997,2.206107,3.1526718,9.068703,9
0.24810791,-0.03161621,0.02368164,-12.053435,2.2366412,0.24427481,9
0.24169922,-0.03692627,0.024414062,-6.145038,1.4961832,-8.427481,9
0.23828125,-0.045898438,0.02758789,-5.519083999999999,-1.2900764,-14.885496,9
0.23956299,-0.05029297,0.03100586,0.77099234,0.53435117,-21.801527,9
0.23400879,-0.046936035,0.031982422,5.587786,1.1526718,-25.93893,9
0.2421875,-0.0435791,0.026062012000000002,5.053435299999999,0.9236641,-31.19084,9
0.24438477,-0.045898438,0.02331543,-2.1908397999999996,1.1679389999999998,-34.25954,9
0.25598145,-0.04699707,0.020324707,-4.259542,5.0839696,-36.44275,9
0.25512695,-0.05242919999999999,0.02355957,-10.923664,7.961832000000001,-35.732826,9
0.24816895,-0.041870117000000005,0.018127441,-14.549619,10.519084,-35.44275,9
0.24737549,-0.05090332,0.015441895,-28.740458,9.938931,-28.076335999999998,9
0.24359131,-0.05065918,0.014160156,-26.671754999999997,10.564885,-21.961832,9
0.24389648,-0.045776367000000005,0.011657715,-31.725191,8.580152499999999,-18.022902,9
0.2514038,-0.05029297,0.011657715,-41.21374,-3.2442749,-15.129771,9
0.27990723,-0.054382324,0.001953125,-46.641220000000004,-6.221374,-19.08397,9
0.28063965,-0.06628418,0.00592041,-32.931297,-0.46564886,-22.038168,9
0.26672363,-0.06927489999999999,0.006347656,-10.503817,3.0076337000000004,-20.305344,9
0.24249268,-0.06011963,0.009948731,6.9541984,5.5343513,-8.068703,9
0.22717285,-0.050476074,0.016357422,7.3664119999999995,-5.40458,5.8702292,9
0.23199463,-0.051086426,0.020996094,4.2290077,-9.9007635,14.78626,9
0.24267578,-0.043884277,0.02130127,5.3893127,-5.656488400000001,20.687023,9
0.2522583,-0.034423828,0.021362305,-4.4656487,-5.8244276,20.12977,9
0.2623291,-0.025817871000000003,0.018615723,-17.335878,-0.14503817,20.839695000000003,9
0.26263428,-0.029052734,0.021972656,-31.770992,-2.5801528,18.450382,9
0.27386475,-0.028747559,0.015808105,-41.0229,-2.4045799999999997,16.946566,9
0.25683594,-0.026306152000000003,0.020629883,-39.068703,5.8244276,16.404581,9
0.24572754,-0.036132812,0.02508545,-36.25954,-1.9923664,9.450381,9
0.24896239999999997,-0.034606934,0.021057128999999997,-5.2061067,-1.5801526000000001,1.8167938999999997,9
0.24688720000000003,-0.025695799999999998,0.028869628999999997,6.4961834000000005,2.091603,-4.145038,9
0.25134277,-0.021850586,0.024230957,5.0076336999999995,1.0839695,-12.465649,9
0.26104736,-0.028869628999999997,0.01763916,-4.778626,0.99236643,-18.694656,9
0.26141357,-0.027038574,0.00982666,-12.954199000000001,7.7251906,-24.969465,9
0.23779297,-0.040771484,0.016174316,-9.603053,11.816792999999999,-26.259542,9
0.22705078,-0.030456543,0.014953613000000001,-14.687023000000002,7.793893300000001,-23.885496,9
0.23937988,-0.044616699999999995,0.013671875,-13.61832,4.3206105,-20.557251,9
0.24383545,-0.04309082,0.011230469,-2.908397,3.221374,-14.992367000000002,9
0.26257324,-0.03363037,0.005432129,-4.587786,3.1603053,-10.175572,9
0.27239990000000003,-0.03466797,0.002380371,-19.389313,1.8702290000000001,-4.8320612999999994,9
0.27929688,-0.047668457000000004,0.001708984,-36.16794,3.8396947,-1.1374046,9
0.28082275,-0.04748535,-0.006408690999999999,-39.53435,8.938931,3.129771,9
0.25195312,-0.050720215,-0.003662109,-31.12977,7.923664,8.984733,9
0.23962402,-0.05645752,0.0014648439999999999,-24.725191,-2.5954200000000003,14.320610999999998,9
0.24096679999999995,-0.04876709,0.000977,-15.435115,1.221374,16.671754999999997,9
0.24572754,-0.041809082000000004,-0.0021972660000000002,-25.809160000000002,-5.9770994,18.687023,9
0.24945068,-0.042419434000000006,-0.007568359,-34.435116,-6.0839696,20.06107,9
0.24145508,-0.049072265999999996,-0.005615234,-20.854961,-5.2977099999999995,16.480917,9
0.25250244,-0.056518555,0.003112793,-13.480916,-7.793893300000001,13.78626,9
0.24475098,-0.05517578,0.01348877,2.534351,-10.717557000000001,8.7786255,9
0.2442627,-0.06109619,0.026855469,29.57252,-6.1374044,5.89313,9
0.24719238,-0.04168701,0.037353516,55.870228000000004,-2.221374,-0.8167939000000001,9
0.24438477,-0.023376465,0.047668457000000004,40.954197,-2.2366412,3.0610687999999997,9
0.26641846,-0.025268555,0.031066895,20.12977,-7.9541984,-2.0076337,9
0.29559326,-0.025817871000000003,0.013854981,19.541985,-2.557252,0.48091602,9
0.29956055,-0.04663086,-0.011962891000000002,11.152672,9.343511999999999,-8.503817,9
0.2612915,-0.038513184,-0.003845215,50.610687,30.839695000000003,-1.3740458,9
0.22381592,-0.023071289,0.027770996000000003,24.290077,13.725191,14.633588,9
0.22314453,-0.037475586,0.012329102,-31.38168,-5.2900763,24.396946,9
0.23480225,-0.05493164,-0.015136719,-14.954199,-6.068702,21.732824,9
0.25109863,-0.04095459,-0.007019043000000001,22.946566,2.1450381000000003,25.389313,9
0.25335693,-0.020263672,-0.000671,9.091603,7.9847326,25.732824,9
0.25854492,-0.026977539,-0.003295898,-30.12977,2.7633588,22.42748,9
0.2593994,-0.046020507999999995,0.000916,-29.564885999999998,0.8244275,11.389313000000001,9
0.25238037,-0.05834961,0.006774901999999999,-6.4961834000000005,-0.8396947,2.4580152,9
0.24316406,-0.06011963,0.0078125,16.671754999999997,-0.9465648999999999,-4.4274807,9
0.24224854,-0.055603027,0.012145996000000001,39.06107,-2.7633588,-7.5648856,9
0.25115967,-0.04663086,0.015075683999999999,42.038166,-2.3969467,-7.4732823,9
0.25177002,-0.044067382999999995,0.008056641,34.587788,2.7480917000000002,-8.603053,9
0.24761963,-0.041992188,0.006652831999999999,30.977097999999998,3.8931297999999996,-9.541985,9
0.24291992,-0.04547119,0.006286621,22.145039,5.2519083,-10.847328,9
0.23309326,-0.05065918,0.003051758,19.351145000000002,4.5343513,-11.053435,9
0.22540283,-0.052734375,-0.00201416,23.48855,1.8778626,-11.114504,9
0.23364258,-0.055725098,-0.00201416,29.183207,-6.0,-10.885496,9
0.26245117,-0.060302734000000004,-0.003540039,38.282444,-10.519084,-16.022902,9
0.300354,-0.059020996,-0.000916,51.160305,-7.038167999999999,-21.42748,9
0.2946167,-0.05114746,0.004699707,48.78626,7.206106699999999,-15.7786255,9
0.2635498,-0.03918457,0.010375977,34.244274,9.793892999999999,3.29771,9
0.24212646,-0.043395996,0.014709473,2.4732822999999997,5.6412214999999994,26.587785999999998,9
0.22772217,-0.036865234,0.025939941,-25.068703,-4.7862597000000004,45.549618,9
0.24395752,-0.056884765999999996,0.003967285,-19.931297,-10.114504,52.290077000000004,9
0.25506592,-0.04888916,0.007995606,-0.4427481,-0.52671754,54.78626,9
0.24322510000000003,-0.033325195,0.00769043,-7.328244000000001,-4.6870227,49.717556,9
0.2518921,-0.034362792999999996,0.0034790040000000004,-11.519084,-7.0152674,37.648853,9
0.24328613,-0.045959473,0.008483886999999999,3.9160306000000005,-7.19084,19.923664000000002,9
0.24322510000000003,-0.048217773,0.005187988,15.656488000000001,-9.824428,4.2519083,9
0.23657227,-0.044555664,0.01977539,19.519083,-7.8244276,-5.526717700000001,9
0.23608398,-0.040222167999999996,0.019042969,26.213741,-6.900763499999999,-10.7786255,9
0.23150635,-0.044006348,0.014038086000000002,28.099237,-6.076336,-9.557252,9
0.23303223,-0.045898438,0.011169433999999999,21.236639999999998,-4.519083999999999,-5.473282299999999,9
0.23846436,-0.03741455,0.012390136999999999,7.1984735,-7.068702,-1.7175573,9
0.24456787,-0.050842285,0.007507324,-3.1221373,-9.625955000000001,-1.7709924,9
0.24584961,-0.046875,0.002075195,8.801527,-7.8778625,-7.19084,9
0.25030518,-0.04827881,0.004516602,12.534351,-9.251908,-19.099237,9
0.24951172,-0.057800292999999996,0.003173828,19.480917,-10.496183,-31.404581,9
0.24865723,-0.06671142599999999,-0.005371094,30.76336,-5.2977099999999995,-43.183205,9
0.25195312,-0.06427002,-0.001831055,40.229008,1.3435115,-49.053436,9
0.24890137,-0.051635742000000005,6.1e-05,38.030533,5.59542,-41.89313,9
0.24810791,-0.052856445,-0.005310059000000001,15.580152499999999,1.5801526000000001,-27.022902000000002,9
0.25830078,-0.051635742000000005,-0.00769043,0.70229006,-1.2824427,-8.290076,9
0.27447509999999997,-0.046203613,-0.000488,-13.7786255,-12.312977,9.687023,9
0.2810669,-0.05682373,0.002075195,-25.366413,-13.877863,24.57252,9
0.2637329,-0.05731201,0.001647949,1.7709924,-18.641222,27.022902000000002,9
0.28302002,-0.05230713,0.00390625,16.61832,-26.908398,23.687023,9
0.28979492,-0.04309082,-0.019897461,43.16794,-11.732824,13.19084,9
0.25512695,-0.037597656,-0.010498047,54.55725,2.0305343000000002,10.923664,9
0.23468018,-0.03326416,-0.00579834,24.93893,-5.9770994,15.251907999999998,9
0.21685791,-0.0435791,-0.007019043000000001,-2.3282442000000003,-8.732824,25.480917,9
0.20977783,-0.051330565999999994,-0.018127441,-10.366412,-15.801526999999998,27.12977,9
0.23309326,-0.049438477,-0.022033691,15.534351000000001,-18.045801,28.862595000000002,9
0.2562256,-0.042236328,-0.002136231,20.671754999999997,-6.374046,30.885496000000003,9
0.2701416,-0.042663574,0.002075195,6.8320612999999994,-14.412213000000001,21.06107,9
0.28479004,-0.04663086,0.005004883,14.984732999999999,-10.083969,9.923664,9
0.28851318,-0.053833007999999995,0.00042699999999999997,14.61832,-6.656488400000001,0.99236643,9
0.27172852,-0.04925537,-0.012451172,27.068703000000003,8.458015,-4.9541984,9
0.24316406,-0.040893555,-0.015930176,38.473279999999995,16.404581,-7.5114503,9
0.23187256,-0.037963867000000005,-0.017456055,24.885496,10.854961,-10.206107000000001,9
0.22814941,-0.044189453,-0.020202637,9.541985,8.816792999999999,-9.816792999999999,9
0.22723389,-0.049621582000000004,-0.023864746000000003,15.9007635,2.961832,-12.297709,9
0.23431396,-0.04937744,-0.02508545,20.374046,-1.6030535,-14.343511999999999,9
0.24401855,-0.048034667999999996,-0.020690918,21.748089999999998,-3.8931297999999996,-14.305344,9
0.24975586,-0.04449463,-0.018981934,17.671754999999997,-2.0305343000000002,-12.862596,9
0.25048828,-0.049987792999999996,-0.016113281,9.297709,-2.9312978,-9.725191,9
0.26116943,-0.05218506,-0.01928711,7.793893300000001,-3.0458016,-5.335878,9
0.25524902,-0.059753417999999996,-0.012390136999999999,17.473282,-4.7480917,-1.0458015,9
0.25634766,-0.057739257999999995,-0.012756348,26.099237,-3.8931297999999996,-0.122137405,9
0.25408936,-0.050476074,-0.014465332,27.25191,-2.7175572,0.7633588000000001,9
0.24267578,-0.05529785,-0.014526367,29.114503999999997,-2.1526718,0.08396947,9
0.23809814,-0.040771484,-0.02331543,22.435114000000002,-1.519084,0.34351146,9
0.24682617,-0.050231934000000006,-0.026794434,14.557251999999998,-0.2519084,-0.16793893,9
0.25115967,-0.040100098,-0.037963867000000005,9.396947,-1.3129771000000001,-0.6183206,9
0.24920654,-0.044677734000000004,-0.03277588,12.152672,-1.2824427,-0.061068702,9
0.24243164,-0.041259766,-0.033508300000000005,12.625955000000001,-3.076336,-0.27480915,9
0.23297119,-0.03491211,-0.026916503999999997,12.992367,-4.7328243,-1.0305344,9
0.24273682,-0.043884277,-0.029174805,16.694656,-9.312977,-2.778626,9
0.24188232,-0.04498291,-0.03466797,17.167938,-6.6793895,-2.6641220000000003,9
0.24536133,-0.044311523,-0.025878906,10.251908,-5.8778625,-1.091603,9
0.25482178,-0.04699707,-0.01953125,7.396946400000001,-8.061069,0.015267176,9
0.25238037,-0.04663086,-0.019592285,6.152672,-5.053435299999999,2.7251909,9
0.25164795,-0.044128417999999996,-0.011962891000000002,-6.183206,-6.328244000000001,7.2442746,9
0.25878906,-0.046142578,-0.009460449000000001,-16.450382,-2.1450381000000003,9.549619,9
0.25805664,-0.05267334,-0.004455565999999999,-21.251910000000002,0.122137405,11.282442999999999,9
0.2600708,-0.055725098,-0.006591797,-24.473282,1.9923664,11.954199000000001,9
0.25891113,-0.055847167999999996,-0.01373291,-25.946566,4.9007635,9.847328,9
0.27008057,-0.058044434000000006,-0.01940918,-31.274809,6.816794,7.2137402999999996,9
0.25494385,-0.059936523,-0.026794434,-21.198473,17.694656,6.2824425999999995,9
0.23400879,-0.053588867000000005,-0.029846191,-8.091603,13.603053,6.4961834000000005,9
0.23297119,-0.05218506,-0.028991700000000002,-3.129771,5.6106873,6.6488547,9
0.22998047,-0.050598145,-0.034301757999999995,5.5725193,5.587786,6.190840000000001,9
0.22955322,-0.045959473,-0.03137207,6.343511599999999,0.9694656999999999,3.9770992,9
0.2387085,-0.041381836,-0.04827881,12.580152499999999,-6.145038,1.5343511,9
0.2514038,-0.039978027,-0.03552246,-0.9312976999999999,3.7328242999999994,2.2748091,9
0.24731445,-0.040161132999999995,-0.03363037,-12.114504,-1.1145038999999999,2.4732822999999997,9
0.253479,-0.04522705,-0.034423828,-19.534351,-1.70229,3.946565,9
0.256958,-0.047180176,-0.026306152000000003,-26.755726,-2.4045799999999997,8.312977,9
0.25671387,-0.05267334,-0.01751709,-17.702289999999998,-3.167939,9.206107000000001,9
0.25750732,-0.049743652,-0.009887695,-4.2900763,-6.1679387000000006,9.450381,9
0.25927734,-0.043518065999999994,-0.012390136999999999,-13.885496,-4.519083999999999,8.160305000000001,9
0.25585938,-0.049926757999999995,-0.010498047,-23.969465,3.8625953,7.900763499999999,9
0.24645996,-0.051452637,-0.014526367,-25.786259,7.0839696,5.335878,9
0.24237060000000002,-0.051696777,-0.019226074,-35.580154,11.824428,4.259542,9
0.23797607,-0.055358887,-0.027648926,-39.099236,12.480916,3.6870230000000004,9
0.23980713,-0.056030273,-0.034423828,-36.709922999999996,11.053435,1.3358778999999998,9
0.24395752,-0.054504395,-0.036621094,-33.83206,12.358779,0.26717559,9
0.24237060000000002,-0.05596924,-0.048706055,-32.87786,13.21374,-0.78625953,9
0.23760986,-0.05078125,-0.04309082,-32.862595,10.091603,-1.7404580000000003,9
0.24615479,-0.05218506,-0.04260254,-32.954197,7.2671757,-2.1450381000000003,9
0.24835205,-0.05908203,-0.03479004,-29.534351,5.7480917,-1.351145,9
0.24987793,-0.056396484000000004,-0.039855957000000004,-23.458015,2.091603,-2.442748,9
0.25469970000000003,-0.05670166,-0.032043457000000004,-21.526718,4.0458016,-3.0839694,9
0.25042725,-0.06103515599999999,-0.033508300000000005,-18.419847,1.7251908999999999,-1.5801526000000001,9
0.25378418,-0.050231934000000006,-0.042297363,-17.06107,3.59542,-1.1374046,9
0.25451660000000004,-0.06225586,-0.02734375,-16.175573,3.5114503,-1.3435115,9
0.2512207,-0.06591797,-0.032226562,-14.694656,4.0076336999999995,-0.20610687,9
0.24688720000000003,-0.06060791,-0.026733398,-12.083969,5.587786,-0.15267175,9
0.2515869,-0.061340332000000004,-0.03112793,-10.946565,5.5419846,2.3435113,9
0.2510376,-0.0635376,-0.034057617000000005,-7.763358599999999,6.4885497,4.221374,9
0.24462889999999998,-0.056274414,-0.030883789,-10.206107000000001,5.7480917,5.068702,9
0.24121094,-0.054504395,-0.031066895,-10.160305000000001,4.473282299999999,6.091603299999999,9
0.24658203,-0.059570312,-0.035583496,-8.183207000000001,4.7862597000000004,6.969465700000001,9
0.24664307,-0.059265137,-0.030395507999999998,-6.1984735,5.6106873,7.2442746,9
0.24499512,-0.05517578,-0.03466797,-4.2748094000000005,4.5114503,7.3206105,9
0.24505615,-0.057983400000000004,-0.037902832000000004,-3.3816792999999996,4.633588,7.2519083,9
0.24865723,-0.053100586,-0.035949707000000004,0.7480916,4.2977099999999995,5.8625956,9
0.25146484,-0.051879882999999995,-0.036376953,1.3053435,5.076336,5.1221375,9
0.24768066,-0.045959473,-0.033508300000000005,1.3358778999999998,3.9770992,4.1755724,9
0.24816895,-0.04876709,-0.034973145,3.0152671000000004,3.5801528,4.183206,9
0.24835205,-0.05279541,-0.034118652,3.1908397999999996,2.9694657,3.3053436,9
0.24926758,-0.047912598,-0.037597656,6.7328243,0.67175573,2.4045799999999997,9
0.26110839999999996,-0.048095703,-0.028564452999999997,7.6946563999999995,3.351145,1.4580153,9
0.2578125,-0.04675293,-0.023071289,12.022901,4.8396945,1.5725191,9
0.25164795,-0.047851562,-0.025024414,5.114504,5.984732599999999,1.2748091000000001,9
0.25524902,-0.04675293,-0.024169922000000003,3.5496182000000003,7.664122,2.9923662999999996,9
0.25512695,-0.045837402,-0.017211914,1.0229008,6.816794,2.4503817999999997,9
0.25439453,-0.042175292999999996,-0.018127441,-0.32824427,8.931297,3.8473281999999998,9
0.25061035,-0.042419434000000006,-0.020935059,-6.603053599999999,10.511451,4.10687,9
0.24420166,-0.044799805,-0.020507812,-10.053435,9.648855000000001,2.6717557999999997,9
0.24957275,-0.043823242000000005,-0.021606445,-7.664122,10.076336,1.5343511,9
0.24523926,-0.043945312,-0.026916503999999997,-4.603053599999999,9.114504,-1.3816794,9
0.24755860000000002,-0.044677734000000004,-0.024780273,-5.221374,8.21374,-2.7404580000000003,9
0.24932861,-0.04541015599999999,-0.025146484,-5.0,9.526717,-3.4198472,9
0.24920654,-0.043762207000000004,-0.026855469,-5.9389315,7.9770994,-3.3893129999999996,9
0.25360107,-0.04699707,-0.023254395,-1.7938931,8.0992365,-4.1984735,9
0.25457764,-0.04833984400000001,-0.019348145,-1.8549619,9.106871,-4.7557254,9
0.25329589999999996,-0.049804688,-0.017089844,0.22137405,9.007633,-3.5267177000000003,9
0.25341797,-0.04815674,-0.01574707,-0.67175573,7.8549619999999996,-3.6946564,9
0.24932861,-0.050231934000000006,-0.018920898000000002,-3.3358779999999997,8.916031,-2.5038167999999996,9
0.25238037,-0.050231934000000006,-0.016540527,-2.9312978,9.167939,-2.7175572,9
0.25372314,-0.04827881,-0.016967773000000002,0.3053435,9.671756,-2.3053436,9
0.25152588,-0.047668457000000004,-0.016052246000000003,-1.0610687,8.954199000000001,-1.7404580000000003,9
0.25280762,-0.044555664,-0.014831543,-1.1984733,9.633588,-1.0610687,9
0.24334717,-0.044677734000000004,-0.016723633,1.5343511,7.4198475,-1.1374046,9
0.2454834,-0.04510498,-0.015197753999999999,-0.54198474,6.8702292,0.18320611,9
0.24627686,-0.043029785,-0.015075683999999999,0.32824427,6.40458,0.259542,9
0.24597168,-0.043701172,-0.010620117,-1.2290076,6.7557254,0.8549618,9
0.24346924,-0.045837402,-0.021057128999999997,1.4656489,4.1984735,-0.13740458,9
0.2467041,-0.04522705,-0.018249512,-2.9923662999999996,6.2900763,0.045801528,9
0.25109863,-0.05255127,-0.014587402,-1.5419847,3.1221373,-0.66412216,9
0.24353027,-0.04260254,-0.016662598,0.89312977,5.1603055,-0.6946565,9
0.24243164,-0.053771973,-0.01739502,3.3969467000000004,3.8396947,-1.2671756,9
0.24456787,-0.05596924,-0.013122558999999999,4.0076336999999995,3.7328242999999994,-0.22900763,9
0.24920654,-0.059814453,-0.013671875,7.557252,3.1450381000000003,-0.114503816,9
0.25164795,-0.051208496,-0.007202148,10.511451,2.206107,1.4580153,9
0.24298096,-0.047546387,-0.00982666,11.938931,4.3511453,2.389313,9
0.2564087,-0.046569824,-0.015930176,12.854961,2.7709923,3.1068702,9
0.24658203,-0.051940917999999996,-0.009887695,10.854961,2.1984732000000005,5.5648856,9
0.25024414,-0.047424315999999994,-0.009765625,12.229008,1.038168,6.740458,9
0.246521,-0.04541015599999999,-0.007629395,13.236641,1.9541985,7.5725193,9
0.2512207,-0.045776367000000005,-0.013061523,10.160305000000001,1.519084,8.251908,9
0.25335693,-0.03967285,-0.009521484,8.862596,0.65648854,8.374044999999999,9
0.25738525,-0.040161132999999995,-0.013000488000000001,11.129771,2.2671757,6.114504,9
0.25982666,-0.040405273,-0.013061523,13.358779,2.8244274,3.6641220000000003,9
0.25524902,-0.039978027,-0.007507324,13.78626,3.1068702,1.6641221000000002,9
0.25646973,-0.04522705,-0.007995606,14.763359,3.6564887,-1.1450381,9
0.25360107,-0.045715332000000004,-0.005615234,14.274809,4.2977099999999995,-1.9312977,9
0.2526245,-0.043518065999999994,-0.003723145,16.282442,4.6183205,-1.8091604,9
0.25042725,-0.043701172,-0.002563477,13.641221,4.8396945,-1.0839695,9
0.25323486,-0.04333496,-0.0014648439999999999,10.938931,6.1221375,-0.19083970000000003,9
0.25177002,-0.04345703,-0.0010986330000000001,8.335877,6.473282299999999,0.66412216,9
0.25732422,-0.043395996,-0.00402832,9.816792999999999,8.022901,0.519084,9
0.25299072,-0.04034424,-0.004638672,7.7709923,11.328244,0.6946565,9
0.2514038,-0.04083252,-0.007141113,5.2748094000000005,9.160305000000001,-0.07633588,9
0.24896239999999997,-0.037963867000000005,-0.007568359,4.6946564,10.038167999999999,-0.5114504,9
0.24407959,-0.03692627,-0.011047363000000001,-1.5725191,8.580152499999999,-0.740458,9
0.24523926,-0.03918457,-0.008972168,2.3587787000000002,4.931298,-1.8015267,9
0.24597168,-0.03778076,-0.007202148,4.366412,3.946565,-1.1145038999999999,9
0.24676514,-0.03765869,-0.004638672,5.259542,3.7862597,-2.0152671000000004,9
0.24645996,-0.03857422,-0.001831055,7.0458016,1.9083970000000001,-1.5267175,9
0.2506714,-0.035705566,0.000732,3.9312977999999994,1.8167938999999997,-0.099236645,9
0.24951172,-0.037597656,0.005310059000000001,-2.5419848,1.2977100000000001,2.0610688,9
0.25177002,-0.04046631,0.003173828,-7.038167999999999,1.1984733,4.038168,9
0.25372314,-0.038330078,0.005737305,-12.0,1.3969465,5.519083999999999,9
0.25476074,-0.041625977,0.005371094,-16.694656,3.6412212999999998,6.8778625,9
0.25549316,-0.043762207000000004,0.000671,-18.595419,4.5419846,6.2900763,9
0.25256348,-0.04296875,-0.001403809,-18.877863,5.068702,5.1755724,9
0.24847412,-0.042541504,0.001220703,-19.931297,4.816794,5.328244000000001,9
0.2529297,-0.047668457000000004,-0.003112793,-19.465649,5.2824425999999995,5.480916000000001,9
0.24859619,-0.049804688,-0.000366,-18.351145000000002,6.2977099999999995,4.4503818,9
0.24877929999999995,-0.046447754,-0.006530762,-18.022902,4.4503818,5.3816795,9
0.24871826,-0.049621582000000004,-0.0032348629999999997,-15.923664000000002,4.4961834000000005,6.343511599999999,9
0.25201416,-0.059020996,-0.006347656,-14.824428,4.2061067,5.0610685,9
0.24725342,-0.05230713,-0.00390625,-13.770992000000001,4.6488547,5.7938933,9
0.24371338,-0.056518555,-0.003845215,-11.770992,4.9007635,5.076336,9
0.24359131,-0.055541992000000005,-0.00189209,-9.297709,5.2977099999999995,4.4580154,9
0.24969482,-0.05493164,-0.0013427729999999998,-9.267176,4.8244276,3.9923663,9
0.24194336,-0.05230713,-0.006652831999999999,-5.4503818,5.480916000000001,3.908397,9
0.24768066,-0.054748535,-0.007751465,-2.1908397999999996,3.5725190000000002,3.793893,9
0.25323486,-0.055114746,-0.004516602,-2.8625952999999997,1.2442749,3.2900763,9
0.25170898,-0.05065918,-0.00970459,-4.4503818,3.5419848,3.9312977999999994,9
0.24865723,-0.052734375,-0.0078125,-4.396946400000001,1.0992366000000002,3.9923663,9
0.25732422,-0.054992676,-0.005981445,-3.3282442000000003,1.5267175,4.5114503,9
0.25616455,-0.049926757999999995,-0.006225586,-4.343511599999999,0.8396947,4.961832,9
0.25445557,-0.048217773,-0.005737305,-4.854962,0.28244275,2.6488549999999997,9
0.24755860000000002,-0.057250977,0.000671,0.030534351,0.64122134,0.54198474,9
0.24890137,-0.058898926,-0.005981445,3.167939,2.3816792999999996,-0.8091603,9
0.24694824,-0.061279297,-0.004882813,6.3053436,1.1145038999999999,-2.3206108,9
0.24676514,-0.05871582,-0.002990723,11.770992,1.1221374,-3.4580152,9
0.24731445,-0.06103515599999999,-0.004211426,12.290076,1.8625953999999998,-3.6564887,9
0.25012207,-0.057800292999999996,-0.00567627,14.633588,1.3053435,-3.5496182000000003,9
0.24713135,-0.057800292999999996,0.002502441,15.7786255,5.053435299999999,0.0,9
0.25250244,-0.04931640599999999,-0.001831055,14.015267000000001,-4.038168,2.3435113,9
0.25396729999999995,-0.051391599999999996,-0.00378418,6.5648856,3.351145,6.114504,9
0.24969482,-0.047424315999999994,0.002136231,5.396946400000001,1.6793894,7.137404400000001,9
0.2557373,-0.047851562,-0.002563477,0.58778626,0.4427481,6.656488400000001,9
0.2541504,-0.047546387,-0.003295898,3.870229,3.8396947,7.2290077,9
0.25091553,-0.044677734000000004,-0.006958008000000001,3.3435113,2.6564887,5.7557254,9
0.253479,-0.04296875,-0.00592041,-3.9923663,2.0305343000000002,5.0458016,9
0.24768066,-0.046142578,-0.00958252,-0.061068702,1.9389313000000001,4.068702,9
0.24389648,-0.047058105,-0.010925293,-1.091603,0.3740458,3.1450381000000003,9
0.24346924,-0.046569824,-0.015563965,0.35114503,-0.14503817,2.5419848,9
0.24554443,-0.04937744,-0.00970459,3.1755726,-2.129771,-0.519084,9
0.24774169999999998,-0.049926757999999995,-0.008483886999999999,3.6564887,-1.3129771000000001,-1.2290076,9
0.25054932,-0.05126953,-0.006958008000000001,2.1450381000000003,-0.84732825,-1.8091604,9
0.2506714,-0.054382324,-0.00390625,6.526717700000001,0.7633588000000001,-1.7786259999999998,9
0.25317383,-0.0546875,-0.0021972660000000002,6.816794,1.8015267,-1.7328244,9
0.25384520000000005,-0.055236815999999994,-0.002746582,1.5343511,2.0687022,-0.9694656999999999,9
0.25183105,-0.055419922,-0.004394531,0.28244275,3.3816792999999996,0.96183205,9
0.25109863,-0.0546875,-0.005615234,-2.2900763,4.1679387000000006,2.7251909,9
0.24798584,-0.05645752,-0.009765625,0.65648854,2.7480917000000002,4.633588,9
0.24676514,-0.054626465,-0.008361816,-1.610687,3.2519082999999998,6.3587785000000006,9
0.23974610000000002,-0.05657959,-0.013793945,-1.0687023,0.9847328000000002,5.442748,9
0.24749756,-0.04711914,-0.008911133,1.8244275,1.2900764,6.5343513,9
0.2467041,-0.045959473,-0.00970459,4.656488400000001,0.29007635,6.038168,9
0.25268555,-0.054748535,-0.009765625,4.519083999999999,0.18320611,4.8778625,9
0.24969482,-0.04937744,-0.000793,7.9541984,1.1755725000000001,4.7251905999999995,9
0.25024414,-0.04852295,0.002319336,6.923664,2.1450381000000003,4.6183205,9
0.25128174,-0.049743652,0.005249023,1.4122137,2.1603053,4.038168,9
0.25268555,-0.04888916,0.001831055,1.9236640999999999,5.0229006,2.221374,9
0.25231934,-0.04498291,-0.006530762,-0.96183205,5.3893127,2.1374047000000003,9
0.24462889999999998,-0.048706055,-0.000671,-2.3587787000000002,5.4274807,-0.71755725,9
0.24261475,-0.054626465,-0.006652831999999999,-1.5648855,5.854962,-1.0992366000000002,9
0.24475098,-0.061828613,-0.007507324,0.9847328000000002,5.412214,-1.3587786,9
0.2467041,-0.05621338,-0.004455565999999999,-1.7633588,4.2290077,-0.6488550000000001,9
0.24847412,-0.0546875,-0.006835938000000001,0.65648854,4.5496182,0.03816794,9
0.24169922,-0.060424805,-0.005859375,0.030534351,2.778626,1.3358778999999998,9
0.25170898,-0.05322265599999999,-0.007019043000000001,-2.6183207000000004,2.2595419999999997,3.29771,9
0.25061035,-0.0546875,-0.00201416,-4.854962,1.0534351,4.3206105,9
0.24926758,-0.050048828,0.004272461,-4.1603055,2.572519,4.6488547,9
0.24902344,-0.055114746,-0.004882813,-3.5877862,2.3664122000000005,3.7862597,9
0.25097656,-0.05682373,-0.008850098,-4.1221375,3.5496182000000003,3.5114503,9
0.25091553,-0.053894042999999996,-0.00592041,-1.7633588,3.2824428,2.6412212999999998,9
0.25256348,-0.054138184000000006,0.001586914,-1.5801526000000001,3.8625953,2.3435113,9
0.24554443,-0.054260254,-0.005065918,-1.6717557,4.236641400000001,1.0839695,9
0.24829102,-0.054870605,-0.005065918,1.6030535,4.3511453,0.3053435,9
0.24481201,-0.05407715,-0.003051758,-0.18320611,5.7862597000000004,-0.6793893,9
0.24584961,-0.05279541,-0.006530762,1.0763359,5.4885497,-1.5496184,9
0.24499512,-0.050964355,-0.004760742,3.1755726,5.8244276,-3.053435,9
0.24584961,-0.055114746,-0.008972168,7.030534299999999,4.1603055,-2.7251909,9
0.23980713,-0.05340576,-0.0029296879999999997,2.3587787000000002,6.9541984,-1.9847328999999998,9
0.2421875,-0.056640625,0.001281738,2.1221373,5.587786,1.5725191,9
0.24273682,-0.05480957,0.00189209,1.8702290000000001,3.6717557999999997,2.70229,9
0.24224854,-0.05493164,0.000366,-4.7328243,2.816794,5.5114503,9
0.24902344,-0.05328369,-0.002990723,-6.5038165999999995,-0.39694658,6.2977099999999995,9
0.25097656,-0.05529785,-0.017578125,-1.8625953999999998,-2.389313,4.854962,9
0.24890137,-0.05645752,-0.001647949,-2.793893,-1.6030535,2.7557251,9
0.24957275,-0.05682373,-0.003051758,2.427481,-0.061068702,0.14503817,9
0.24633789,-0.055480957000000004,-0.002441406,4.9389315,1.1221374,-2.5877862,9
0.246521,-0.054626465,0.000793,4.343511599999999,2.5267177000000003,-2.5648854,9
0.24700928,-0.056762695,0.0013427729999999998,4.480916000000001,2.4580152,-4.4198474999999995,9
0.24615479,-0.05908203,-0.002136231,0.77862597,4.1679387000000006,-3.1526718,9
0.24829102,-0.061584473,-0.0032348629999999997,3.1984732000000005,5.1679387000000006,-3.076336,9
0.24755860000000002,-0.060668945,-0.004699707,0.28244275,5.3511453,-2.2442749,9
0.24499512,-0.06072998,-0.012268066000000001,5.5648856,4.0992365,-1.9770991999999998,9
0.25,-0.060913086,-0.011962891000000002,-0.8167939000000001,4.0305343,-0.16793893,9
0.25665283,-0.056518555,-0.015014648,5.1755724,2.6717557999999997,1.2061069,9
0.25073242,-0.05621338,-0.012695313,6.0,2.3511450000000003,1.9923664,9
0.24835205,-0.05645752,-0.011474608999999998,6.145038,1.7328244,2.8625952999999997,9
0.24395752,-0.049560547,0.002075195,2.1221373,-2.6641220000000003,4.2900763,9
0.25170898,-0.06597900400000001,-0.001525879,0.15267175,-2.8854961,6.89313,9
0.24755860000000002,-0.05303955,-0.0029296879999999997,20.274809,9.320611,3.0,9
0.24481201,-0.04559326,0.016723633,10.038167999999999,-1.8320610000000002,5.8244276,9
0.24700928,-0.042419434000000006,0.005310059000000001,-4.5725193,-3.8167940000000002,1.4732825,9
0.25012207,-0.058532715,-0.005615234,-8.244275,-4.3053436,1.3129771000000001,9
0.24432373,-0.054138184000000006,-0.003295898,9.030535,2.5038167999999996,-1.519084,9
0.25500488,-0.049682617000000005,0.004882813,0.4427481,-1.5114504,-2.1450381000000003,9
0.25738525,-0.055664062,0.0034790040000000004,4.9694657,1.1679389999999998,-3.6106870000000004,9
0.2522583,-0.051574707000000004,-0.003540039,10.045800999999999,4.328244000000001,-3.4427480000000004,9
0.24969482,-0.05340576,-0.005615234,3.6412212999999998,2.6259542000000002,-1.2671756,9
0.25512695,-0.050842285,-0.002685547,5.3129773,7.9389315,-1.9389313000000001,9
0.2508545,-0.055664062,0.0008539999999999999,-2.7633588,6.2442746,2.5877862,9
0.24456787,-0.055114746,-0.008850098,1.8091604,8.320611,2.6030533,9
0.24853516,-0.051757812,-0.001220703,4.442748,7.0152674,5.0229006,9
0.24475098,-0.051208496,-0.007080078,1.9923664,6.0839696,7.4885497,9
0.24908447,-0.05621338,-0.004455565999999999,0.07633588,5.3587785000000006,9.709924,9
0.25219727,-0.05206299,-0.00201416,1.8167938999999997,5.740458,9.129771,9
0.25164795,-0.054870605,-0.000977,1.2290076,2.2748091,8.183207000000001,9
0.24908447,-0.05444336,-0.005737305,1.519084,-0.18320611,3.8931297999999996,9
0.24346924,-0.04650879,-6.1e-05,1.4961832,-0.55725193,3.3282442000000003,9
0.24597168,-0.04547119,-0.000793,0.08396947,-1.5267175,-0.5496183000000001,9
0.24743652,-0.04443359400000001,-0.006652831999999999,0.19847329,-2.5877862,-1.5114504,9
0.25115967,-0.04840088,-0.002319336,-1.091603,-1.9007633999999998,-2.6946564,9
0.2454834,-0.04626465,-0.001953125,-0.8091603,0.35877863,-3.923664,9
0.2524414,-0.048828125,-0.000305,-4.6412214999999994,-0.17557251,-5.6183205,9
0.25274658,-0.049865723,-0.0032348629999999997,-7.343511599999999,0.28244275,-4.664122,9
0.24896239999999997,-0.04827881,-0.007751465,-1.3740458,0.8854962,-5.053435299999999,9
0.24969482,-0.049804688,-0.007202148,-5.4656487,0.519084,-4.5038165999999995,9
0.2515869,-0.05291748,-0.008483886999999999,-5.5496182,3.7862597,-2.4045799999999997,9
0.25177002,-0.05316162,-0.000183,-5.3129773,8.305344,0.5496183000000001,9
0.24932861,-0.054382324,-0.000732,-10.709924,5.847328,1.2519083999999998,9
0.25048828,-0.05712890599999999,-0.00042699999999999997,-7.908396700000001,6.4274807,2.7175572,9
0.24969482,-0.05615234400000001,0.005554199,-3.3969467000000004,8.877863,1.7709924,9
0.2592163,-0.07098389,0.010620117,-32.381679999999996,-9.717557000000001,9.106871,9
0.24371338,-0.061340332000000004,-0.03515625,10.160305000000001,11.343511999999999,0.29007635,9
0.2421875,-0.0501709,-0.02960205,18.839695000000003,-14.694656,5.6106873,9
0.26116943,-0.059387207000000004,-0.028686523,-4.9694657,10.877863,6.1374044,9
0.24017334,-0.061462402,-0.010681152,28.305344,4.625954,7.1450380000000004,9
0.24023438,-0.041625977,-0.026245117000000002,23.580153,-7.6793895,4.961832,9
0.23693848,-0.031921387,-0.004821777,23.366413,0.6335878,4.8702292,9
0.25500488,-0.06024169999999999,0.04663086,-10.007633,-0.32061067,9.526717,9
0.25402832,-0.059509277,0.000488,13.816792999999999,0.43511450000000007,6.412214,9
0.24462889999999998,-0.033325195,-0.015808105,33.091602,3.0,0.740458,9
0.25567627,-0.034118652,0.004882813,-3.2290077,8.343511999999999,2.832061,9
0.24621582,-0.06390381,0.013977051,-24.229008,5.6106873,7.2824425999999995,9
0.2421875,-0.062683105,-0.004150391,7.89313,9.381680000000001,3.3664122000000005,9
0.23931885,-0.045837402,-0.023803711,-0.053435113,-0.5801527,0.022900764,9
0.24865723,-0.04876709,-0.012268066000000001,-11.793892999999999,11.381680000000001,1.3816794,9
0.25329589999999996,-0.06713867,0.011535645,-21.732824,1.7480916000000002,5.557252,9
0.246521,-0.07592773400000001,-0.01940918,1.2366412,3.3282442000000003,-0.34351146,9
0.24053955,-0.048217773,-0.010192871,12.603053,-3.4809160000000006,-5.6870227,9
0.24487305,-0.04541015599999999,-0.02331543,-4.374046,-1.6870228999999999,-6.3206105,9
0.24957275,-0.05242919999999999,0.0029296879999999997,4.984732599999999,0.27480915,-3.8854961,9
0.24139404,-0.057922363,-0.007385254,3.3282442000000003,-4.7328243,-3.1526718,9
0.25109863,-0.0501709,0.006530762,5.0,-0.5801527,-3.5725190000000002,9
0.24035645,-0.05090332,-0.012695313,-3.3358779999999997,-1.1755725000000001,-2.0229008,9
0.24731445,-0.060668945,-0.002990723,-0.27480915,-2.8625952999999997,-2.0305343000000002,9
0.24847412,-0.061767578,-0.010314941,-0.78625953,0.9160305000000001,-0.26717559,9
0.25744629999999996,-0.06024169999999999,0.000183,2.6488549999999997,4.412214,2.2290077,9
0.24871826,-0.062072754,-0.007507324,0.58778626,3.6717557999999997,3.8854961,9
0.24731445,-0.058898926,0.002990723,2.3740457999999998,4.068702,4.145038,9
0.25091553,-0.05883789,-0.006469727,-0.46564886,0.122137405,4.847328,9
0.24291992,-0.05078125,-0.016174316,8.610686999999999,0.6946565,4.6106873,9
0.24200439999999998,-0.040405273,-0.01965332,13.40458,-4.89313,4.4656487,9
0.25183105,-0.049804688,-0.005737305,-4.6946564,2.4122138,9.290076,9
0.24481201,-0.059143065999999994,-0.006103516,3.4198472,-1.5419847,6.3129773,9
0.24945068,-0.051696777,-0.006835938000000001,4.5496182,-1.0,3.8167940000000002,9
0.25097656,-0.054748535,-0.00592041,6.80916,2.5877862,4.053435299999999,9
0.24914551,-0.053466797,-0.008117675999999999,5.10687,1.9389313000000001,2.3053436,9
0.24578857,-0.0546875,-0.0032348629999999997,3.908397,3.4503817999999997,3.7175572,9
0.25610352,-0.060546875,-0.008728027,-0.091603056,2.8625952999999997,4.076336,9
0.24865723,-0.053771973,-0.010131836,4.7862597000000004,4.190840000000001,2.0076337,9
0.24822998,-0.05645752,-0.015258788999999998,-1.3969465,-0.14503817,1.1755725000000001,9
0.25073242,-0.060180664,-0.00982666,4.1297708,4.526717700000001,1.7404580000000003,9
0.24719238,-0.054504395,-0.006225586,6.40458,1.4427481000000002,0.8778626,9
0.25152588,-0.052368164,-0.011657715,-2.4580152,-0.740458,1.4122137,9
0.2515869,-0.057250977,-0.0078125,-1.2442749,3.1526718,2.1068702,9
0.24963379,-0.055908203,-0.010070800999999999,1.8015267,2.557252,1.2519083999999998,9
0.24963379,-0.05090332,-0.006591797,-0.99236643,5.2061067,1.7709924,9
0.24987793,-0.049987792999999996,0.00378418,-11.610686999999999,9.297709,5.015267400000001,9
0.24926758,-0.05883789,0.0008539999999999999,-23.435114000000002,8.595419999999999,8.137404,9
0.24627686,-0.05847168,-0.000366,-21.648854999999998,6.5419846,6.2442746,9
0.24877929999999995,-0.05712890599999999,-0.004699707,-20.89313,6.7175574000000005,5.9007635,9
0.25646973,-0.06262207,-0.019165039,-16.992367,6.1297708,2.5114503,9
0.24304199,-0.060791015999999996,-0.011047363000000001,-5.984732599999999,6.259542,1.221374,9
0.25280762,-0.049987792999999996,-0.020263672,-4.1984735,6.221374,0.091603056,9
0.24841309,-0.057373047,-0.015441895,-0.36641222,3.6717557999999997,-0.10687023,9
0.26000977,-0.053100586,-0.022766112999999998,0.5496183000000001,1.5801526000000001,-1.0992366000000002,9
0.24938965,-0.05480957,-0.015075683999999999,0.79389316,-1.4045801000000002,1.4045801000000002,9
0.25708008,-0.04827881,-0.003540039,-2.2900763,-1.2137405,0.38167940000000006,9
0.24951172,-0.049194336,-0.008850098,1.389313,-0.66412216,0.610687,9
0.2479248,-0.059448242000000005,-0.012207031,-1.2519083999999998,1.2290076,0.41984734,9
0.2524414,-0.059753417999999996,-0.003601074,-0.45801526,1.5648855,1.1603054,9
0.246521,-0.059936523,0.003723145,-2.3587787000000002,3.4503817999999997,1.2519083999999998,9
0.25341797,-0.051879882999999995,-0.010314941,-6.5343513,4.2824425999999995,1.4961832,9
0.24853516,-0.055236815999999994,-0.0033569340000000002,-4.5648856,6.1374044,1.961832,9
0.24224854,-0.05822754,-0.009948731,-5.908396700000001,7.6870227,1.3053435,9
0.25091553,-0.05822754,-0.002441406,-7.3129773,4.0458016,0.48091602,9
0.24688720000000003,-0.058898926,-0.010925293,-2.2519082999999998,5.5725193,0.20610687,9
0.24639893,-0.0546875,-0.008911133,-1.9923664,5.343511599999999,-0.8702290000000001,9
0.24389648,-0.059020996,-0.012084961000000002,-0.24427481,2.1908397999999996,-1.4351145,9
0.24920654,-0.05810547,-0.016174316,3.0610687999999997,4.4351144,-2.1603053,9
0.25250244,-0.058532715,-0.004333496,7.9541984,3.7862597,-1.9770991999999998,9
0.24743652,-0.06072998,-0.008178711,4.8015265,2.2366412,-1.8396946,9
0.24499512,-0.057617188,-0.003723145,5.2061067,2.778626,-0.8854962,9
0.24780273,-0.05230713,-0.001281738,0.78625953,2.465649,1.6030535,9
0.25146484,-0.05987549,-0.008728027,5.183206,1.1526718,2.7099237,9
0.24932861,-0.05505371,-0.00579834,4.603053599999999,4.4503818,3.465649,9
0.24902344,-0.055725098,-0.004089356,1.8625953999999998,3.0839694,2.8244274,9
0.24822998,-0.05682373,-0.006469727,2.6946564,2.8931298,2.9312978,9
0.24536133,-0.05670166,-0.010437011999999999,3.3358779999999997,3.5038167999999996,4.4503818,9
0.24627686,-0.051452637,-0.002258301,1.2748091000000001,2.6488549999999997,3.053435,9
0.24853516,-0.05609131,-0.00579834,-0.47328246,2.610687,3.7404580000000003,9
0.24938965,-0.05279541,-0.005249023,4.4961834000000005,1.8091604,3.29771,9
0.25036620000000004,-0.051940917999999996,-0.005981445,2.3816792999999996,2.519084,2.3435113,9
0.24749756,-0.050720215,-0.010253906,0.740458,2.0687022,2.465649,9
0.25012207,-0.050354004,-0.005004883,1.1908396,2.6946564,2.6641220000000003,9
0.24871826,-0.049072265999999996,-0.004455565999999999,0.20610687,3.5267177000000003,2.2442749,9
0.24853516,-0.05114746,-0.005310059000000001,-2.0,2.4351146,2.9007633,9
0.24786377,-0.0501709,-0.000122,-2.8473282,4.0,2.0076337,9
0.24829102,-0.051208496,-0.004638672,-3.7251909,3.221374,1.8244275,9
0.24853516,-0.051391599999999996,-0.004760742,-6.3206105,3.40458,1.0687023,9
0.24884033,-0.05322265599999999,-0.005615234,-4.587786,2.7328243,0.9541985000000001,9
0.25134277,-0.053833007999999995,-0.006042481,-4.847328,4.5114503,0.7251908,9
0.24853516,-0.05609131,-0.007141113,-4.053435299999999,2.908397,0.8091603,9
0.25061035,-0.058044434000000006,-0.00567627,-5.190840000000001,3.3664122000000005,0.66412216,9
0.24938965,-0.057861328,-0.005371094,-1.8396946,2.7862597,1.0839695,9
0.24847412,-0.05810547,-0.006835938000000001,-3.167939,2.7480917000000002,-0.39694658,9
0.24835205,-0.057739257999999995,-0.007995606,-1.2290076,2.687023,1.2977100000000001,9
0.24774169999999998,-0.059936523,-0.006530762,-2.0152671000000004,2.6564887,-0.4274809,9
0.24572754,-0.064941406,0.0,-0.8549618,1.9541985,0.9541985000000001,9
0.24493408,-0.06347656,-0.009399414,2.0305343000000002,1.9160305,0.36641222,9
0.24847412,-0.060668945,-0.006713866999999999,0.9389313,1.9312977,0.9236641,9
0.24804688,-0.059631348,-0.005187988,3.29771,1.0610687,0.31297709999999995,9
0.24829102,-0.056640625,-0.005493164,6.519083999999999,1.038168,1.610687,9
0.24340820000000005,-0.057556152,0.0,2.2671757,1.4503816,2.427481,9
0.24725342,-0.06616211,-0.001037598,4.7557254,0.8167939000000001,2.3053436,9
0.24877929999999995,-0.055786132999999995,-0.0033569340000000002,3.4198472,1.2900764,2.6183207000000004,9
0.25061035,-0.05694580000000001,-0.00061,1.7251908999999999,1.3816794,3.1068702,9
0.25305176,-0.05230713,-0.006347656,4.8320612999999994,2.2137403,2.4961832000000004,9
0.25006104,-0.05114746,-0.005615234,3.1984732000000005,2.4351146,1.8549619,9
0.2456665,-0.061523438,-0.0034179690000000003,1.2824427,2.2137403,2.2137403,9
0.23901367,-0.049987792999999996,-0.00390625,4.343511599999999,3.0610687999999997,1.9847328999999998,9
0.24517822,-0.051635742000000005,-0.005371094,4.40458,2.0305343000000002,1.9389313000000001,9
0.25250244,-0.054260254,-0.007324219,1.8854961,1.8320610000000002,2.1603053,9
0.24493408,-0.054016113,-0.012573242,4.633588,1.9923664,2.0610688,9
0.25341797,-0.051940917999999996,-0.006042481,3.7328242999999994,1.2977100000000001,1.5114504,9
0.24475098,-0.05621338,-0.012207031,2.2442749,1.6793894,1.3358778999999998,9
0.25036620000000004,-0.053588867000000005,0.001647949,1.5038168,2.6564887,1.610687,9
0.24725342,-0.057495117000000005,-0.000366,1.1450381,2.2595419999999997,1.5038168,9
0.24938965,-0.051879882999999995,-0.000793,2.1450381000000003,1.4656489,1.1526718,9
0.24816895,-0.052734375,-0.001525879,1.3053435,3.2824428,1.5496184,9
0.24993896,-0.051757812,-0.00177002,0.55725193,1.5954198999999998,1.3358778999999998,9
0.25097656,-0.049621582000000004,-0.004394531,-2.038168,4.114504,0.9465648999999999,9
0.24530029999999997,-0.052734375,-0.006958008000000001,-0.90076333,4.3816795,0.5038168,9
0.24542236,-0.05279541,-0.006347656,-1.0687023,2.6717557999999997,0.9312976999999999,9
0.24804688,-0.053527832000000004,-0.007507324,-0.13740458,2.0152671000000004,1.038168,9
0.24511719,-0.05621338,-0.005432129,-1.6870228999999999,3.0839694,-0.22900763,9
0.24798584,-0.054504395,-0.00390625,-0.39694658,2.9312978,0.49618322,9
0.25006104,-0.056762695,-0.010559082,-0.9465648999999999,1.8091604,0.77099234,9
0.24993896,-0.058044434000000006,-0.007263184000000001,1.5648855,2.7404580000000003,2.221374,9
0.24951172,-0.05633545,-0.006958008000000001,1.038168,2.3282442000000003,2.5496182000000003,9
0.24694824,-0.059936523,-0.004882813,0.84732825,3.6717557999999997,2.9694657,9
0.24890137,-0.058898926,-0.008178711,3.648855,2.2366412,2.0076337,9
0.24639893,-0.056030273,-0.003723145,3.1145039,3.4732822999999997,1.2061069,9
0.24597168,-0.055603027,-0.00579834,4.9007635,1.6946564999999998,1.3664121999999999,9
0.24841309,-0.057678223,-0.007751465,1.9923664,2.5954200000000003,2.206107,9
0.24865723,-0.05493164,-0.007080078,4.671755999999999,1.3358778999999998,2.6183207000000004,9
0.25177002,-0.055419922,-0.006225586,3.40458,0.71755725,2.1755726,9
0.25,-0.054626465,-0.007141113,4.5496182,2.2366412,1.6793894,9
0.24981689999999998,-0.05322265599999999,-0.005554199,3.2519082999999998,1.4885496,2.2366412,9
0.24871826,-0.05444336,-0.012634277,5.6488547,0.31297709999999995,2.2366412,9
0.24896239999999997,-0.053588867000000005,-0.006652831999999999,2.5877862,2.0687022,2.053435,9
0.25109863,-0.052612305,-0.006408690999999999,2.6564887,1.4274809,1.4885496,9
0.24456787,-0.047058105,-0.005065918,3.4122138,2.4732822999999997,1.8167938999999997,9
0.2479248,-0.053833007999999995,-0.007568359,1.480916,1.389313,2.053435,9
0.24719238,-0.059448242000000005,-0.001159668,-0.7251908,3.4732822999999997,1.6641221000000002,9
0.24468994,-0.05682373,-0.005310059000000001,-0.8167939000000001,3.091603,1.8091604,9
0.24053955,-0.06298828,-0.004882813,-0.8091603,1.7633588,1.6259542,9
0.24182129,-0.06005859400000001,-0.001586914,1.1679389999999998,1.5038168,3.5496182000000003,9
0.24798584,-0.058532715,-0.011169433999999999,1.3282443000000002,-0.16030534,1.7328244,9
0.25097656,-0.050842285,-0.011535645,1.4961832,2.183206,2.610687,9
0.25048828,-0.06011963,-0.004577637,2.6717557999999997,2.4351146,2.5114503,9
0.24609375,-0.05206299,-0.008178711,1.1145038999999999,2.1984732000000005,2.8244274,9
0.25128174,-0.059204099999999996,-0.007019043000000001,0.3053435,1.610687,3.3358779999999997,9
0.25402832,-0.055847167999999996,-0.002136231,1.5801526000000001,3.0152671000000004,2.6717557999999997,9
0.2456665,-0.053100586,-6.1e-05,0.41221374,3.3587787000000002,2.9694657,9
0.24645996,-0.051208496,-0.001586914,3.3206108,1.8931297999999999,1.8167938999999997,9
0.25006104,-0.055908203,-0.004394531,3.0076337000000004,2.7404580000000003,2.312977,9
0.25231934,-0.049560547,-0.011901856,3.9160306000000005,-0.34351146,2.2748091,9
0.25164795,-0.05230713,-0.004760742,2.2442749,3.0610687999999997,2.610687,9
0.24371338,-0.055358887,-0.004699707,-0.60305345,2.7480917000000002,1.5725191,9
0.25006104,-0.054260254,-0.005065918,-0.099236645,2.3969467,1.1984733,9
0.24975586,-0.057006836,-0.008422852,-1.0839695,3.4122138,1.2442749,9
0.24755860000000002,-0.054870605,-0.001525879,0.07633588,3.5648854,1.9465648999999998,9
0.24584961,-0.058044434000000006,-0.000549,-0.70229006,3.351145,1.1679389999999998,9
0.24603271,-0.061279297,-0.010925293,-0.16793893,3.4351146,0.7633588000000001,9
0.24877929999999995,-0.057922363,-0.008789063,4.1603055,3.7633588,1.1908396,9
0.24951172,-0.055419922,-0.009765625,3.9312977999999994,2.6335877999999995,0.8396947,9
0.24468994,-0.059509277,-0.007507324,2.8931298,1.9007633999999998,1.9312977,9
0.24700928,-0.053833007999999995,-0.004516602,5.59542,2.0076337,1.7709924,9
0.24627686,-0.053710938,-0.003112793,3.1908397999999996,2.0687022,1.7251908999999999,9
0.24725342,-0.05407715,-0.004150391,1.6030535,1.038168,1.8396946,9
0.24755860000000002,-0.054626465,-0.003112793,3.59542,1.9312977,1.0687023,9
0.25006104,-0.056518555,-0.003845215,2.5877862,2.2137403,0.8167939000000001,9
0.25177002,-0.053771973,-0.003051758,0.34351146,3.2137403,1.3358778999999998,9
0.24908447,-0.05731201,-0.005432129,0.24427481,4.664122,0.8702290000000001,9
0.24908447,-0.05847168,-0.005126953,-0.53435117,4.7709923,1.2977100000000001,9
0.24951172,-0.059265137,-0.005859375,0.45801526,3.870229,0.9389313,9
0.24658203,-0.05883789,-0.006713866999999999,3.2366412,2.3206108,1.5038168,9
0.24609375,-0.05694580000000001,-0.008911133,3.091603,1.8167938999999997,1.1755725000000001,9
0.24560547,-0.05657959,-0.008850098,3.9389312000000007,1.4885496,0.8549618,9
0.24816895,-0.055358887,-0.003295898,6.1679387000000006,0.16030534,2.0229008,9
0.25109863,-0.055541992000000005,-0.00390625,3.5419848,0.79389316,0.67175573,9
0.24920654,-0.055541992000000005,-0.002441406,5.2137402999999996,1.4427481000000002,1.2519083999999998,9
0.24993896,-0.054992676,-0.0008539999999999999,3.8091602,1.7480916000000002,1.6259542,9
0.25286865,-0.053466797,-0.0013427729999999998,2.4503817999999997,1.9847328999999998,2.4045799999999997,9
0.24957275,-0.054138184000000006,-0.00201416,3.2137403,2.038168,1.8549619,9
0.24822998,-0.053710938,-0.002868652,0.35877863,2.29771,2.6335877999999995,9
0.24316406,-0.059326172,-0.012634277,-0.015267176,3.038168,2.4122138,9
0.24957275,-0.05291748,-0.00402832,1.7328244,3.9770992,1.648855,9
0.24920654,-0.053710938,-0.004699707,-1.0229008,1.9007633999999998,1.8320610000000002,9
0.25012207,-0.054992676,-0.004943848,0.6183206,1.9389313000000001,0.67175573,9
0.24615479,-0.05255127,-0.000305,-1.5343511,3.908397,1.2366412,9
0.24981689999999998,-0.055236815999999994,-0.005371094,-0.7099236999999999,2.4503817999999997,2.0687022,9
0.25524902,-0.054626465,-0.008178711,-3.6870230000000004,2.6793892,2.5496182000000003,9
0.25720215,-0.05242919999999999,0.002075195,-4.1755724,2.7251909,4.1755724,9
0.24896239999999997,-0.053100586,-0.004211426,-3.8549618999999997,1.6030535,5.9389315,9
0.24291992,-0.05224609400000001,-0.010498047,-5.7099237,3.3129769999999996,5.816794,9
0.25115967,-0.04888916,-0.013122558999999999,-4.519083999999999,1.6259542,5.6488547,9
0.25372314,-0.057250977,-0.008422852,-1.7709924,2.206107,4.656488400000001,9
0.24133301,-0.054992676,-0.006164551,-1.9770991999999998,0.6793893,2.5419848,9
0.24957275,-0.058410645,-0.006164551,-0.21374045,-0.66412216,1.8167938999999997,9
0.24188232,-0.06097412,-0.005432129,1.8015267,-0.259542,-0.47328246,9
0.24578857,-0.06274414,-0.004699707,1.2061069,-1.7557251,-0.5954198,9
0.25909424,-0.05895996,-0.004821777,0.90839696,0.77099234,-0.77862597,9
0.25201416,-0.06097412,-0.0029296879999999997,2.8473282,0.48854962,-0.53435117,9
0.25048828,-0.06536865,-0.000671,2.610687,1.0534351,0.9160305000000001,9
0.24932861,-0.064331055,-0.005371094,3.2748091,1.1450381,1.2366412,9
0.24743652,-0.063964844,-0.006042481,4.656488400000001,1.4656489,2.7557251,9
0.24517822,-0.06323242,-0.011169433999999999,4.0458016,2.2900763,2.5496182000000003,9
0.24572754,-0.059814453,-0.012878418,4.114504,2.0229008,2.4503817999999997,9
0.2467041,-0.059265137,-0.010131836,6.6335880000000005,-0.7557252,2.2748091,9
0.24725342,-0.059387207000000004,-0.012756348,8.129771,0.06870229,1.8549619,9
0.24694824,-0.053771973,-0.009216309,9.290076,-1.038168,0.740458,9
0.24676514,-0.055908203,-0.016906738,11.328244,-3.6793892,1.1526718,9
0.24835205,-0.055114746,-0.008789063,10.206107000000001,-1.351145,0.6870229,9
0.24511719,-0.055236815999999994,-0.007019043000000001,8.625955000000001,-0.31297709999999995,0.43511450000000007,9
0.24755860000000002,-0.05291748,-0.007751465,9.206107000000001,-0.6335878,0.84732825,9
0.25061035,-0.053710938,-0.004577637,8.053435,-1.2900764,1.2366412,9
0.2479248,-0.054504395,-0.008483886999999999,7.4961834000000005,-0.13740458,1.0610687,9
0.24853516,-0.052490234000000004,-0.005615234,4.2442746,-0.38167940000000006,0.114503816,9
0.24884033,-0.05480957,-0.008666992,5.2137402999999996,0.86259544,0.7099236999999999,9
0.24713135,-0.0546875,-0.008117675999999999,5.809159999999999,-0.5954198,1.1374046,9
0.24743652,-0.056396484000000004,-0.013427733999999998,5.4656487,0.519084,-0.16793893,9
0.24932861,-0.057678223,-0.008666992,5.7938933,0.8778626,0.007633588,9
0.24908447,-0.057556152,-0.008789063,4.2748094000000005,1.7099236,-0.7557252,9
0.2514038,-0.056640625,-0.010803223,2.9312978,1.7557251,0.99236643,9
0.24774169999999998,-0.057434082000000004,-0.009277344,4.114504,1.961832,0.9847328000000002,9
0.24902344,-0.057495117000000005,-0.010498047,2.687023,1.5877863,0.610687,9
0.24749756,-0.058654785,-0.010253906,3.3206108,1.3053435,2.5801528,9
0.2467041,-0.055114746,-0.00982666,3.2519082999999998,0.79389316,2.053435,9
0.24743652,-0.056640625,-0.010009766,0.6946565,0.8778626,2.2671757,9
0.24749756,-0.055358887,-0.01348877,-0.17557251,0.77099234,3.3664122000000005,9
0.24755860000000002,-0.05694580000000001,-0.009216309,-0.48854962,-0.39694658,4.1297708,9
0.24914551,-0.05657959,-0.011230469,-3.4961832000000004,-0.6488550000000001,4.412214,9
0.24859619,-0.06060791,-0.009216309,-2.3282442000000003,0.90839696,4.7862597000000004,9
0.25268555,-0.055541992000000005,-0.0078125,-2.1374047000000003,0.39694658,5.2137402999999996,9
0.24200439999999998,-0.053466797,-0.0029296879999999997,-4.0992365,2.1984732000000005,4.0229006,9
0.24658203,-0.060424805,-0.004882813,-1.0534351,0.48854962,2.8549618999999997,9
0.24731445,-0.061523438,-0.009460449000000001,-2.129771,1.8320610000000002,0.34351146,9
0.24578857,-0.059020996,-0.009460449000000001,0.5114504,-0.55725193,-1.648855,9
0.24816895,-0.060668945,-0.013122558999999999,2.0076337,-0.06870229,-2.091603,9
0.24938965,-0.056396484000000004,-0.014282227,0.38931298,-0.36641222,-3.7328242999999994,9
0.24597168,-0.06365967,-0.009948731,4.0992365,1.1068702,-2.832061,9
0.25299072,-0.057250977,-0.010253906,1.4503816,0.5648854999999999,-2.8549618999999997,9
0.25360107,-0.06561279,-0.010192871,4.2290077,0.48091602,-1.3129771000000001,9
0.25042725,-0.058166504,-0.015686035,3.1755726,0.99236643,0.14503817,9
0.24945068,-0.06213379,-0.010986328,2.5267177000000003,0.6183206,1.5419847,9
0.24664307,-0.059814453,-0.012939453,4.3206105,2.091603,1.5877863,9
0.24853516,-0.051574707000000004,-0.01953125,4.6488547,1.9236640999999999,2.2595419999999997,9
0.2442627,-0.049804688,-0.014648438,3.7480917000000002,1.7633588,1.1984733,9
0.24768066,-0.050720215,-0.016784668,6.091603299999999,2.0458016,1.6183206,9
0.24822998,-0.05090332,-0.010803223,3.534351,2.6335877999999995,1.351145,9
0.24578857,-0.051513672,-0.016479492,2.6183207000000004,2.0687022,0.8549618,9
0.2508545,-0.052612305,-0.014831543,6.0229006,0.97709924,-0.83206105,9
0.25610352,-0.055358887,-0.012268066000000001,6.5648856,3.5877862,-3.778626,9
0.2541504,-0.047424315999999994,-0.013671875,7.59542,2.053435,-4.625954,9
0.26031494,-0.05999756,-0.00970459,5.5648856,3.5877862,-5.3053436,9
0.2562256,-0.05316162,-0.012207031,7.0610685,8.198473,-5.4274807,9
0.2514038,-0.05255127,-0.00769043,7.374046000000001,7.29771,-2.0839694,9
0.24896239999999997,-0.051818848,-0.00579834,3.4274809999999998,7.59542,-0.21374045,9
0.24829102,-0.049194336,-0.006347656,0.9694656999999999,9.167939,2.053435,9
0.25360107,-0.046020507999999995,-0.003295898,0.9389313,8.152672,1.480916,9
0.25183105,-0.04547119,-0.008605957,-1.8091604,12.641221,2.1221373,9
0.24487305,-0.039001465,-0.0029296879999999997,-6.923664,11.358779,4.343511599999999,9
0.24572754,-0.040161132999999995,-0.00793457,-15.206107000000001,8.671756,6.2519083,9
0.24536133,-0.04058838,-0.012451172,-12.541985,9.648855000000001,7.4351144,9
0.24224854,-0.03656006,-0.010314941,-16.778625,9.0992365,5.4885497,9
0.24035645,-0.038085938,-0.009643555,-22.343512,6.0305343,4.7175574000000005,9
0.24725342,-0.04046631,-0.016113281,-23.595419,4.5038165999999995,0.64122134,9
0.24328613,-0.047851562,-0.015686035,-21.374046,4.603053599999999,-1.6259542,9
0.2515869,-0.04498291,-0.014404297,-19.580153,1.1679389999999998,-4.183206,9
0.2536621,-0.051879882999999995,-0.01574707,-17.465649,2.832061,-6.9847326,9
0.25036620000000004,-0.054870605,-0.009399414,-15.473282999999999,3.0229008,-9.458015,9
0.25073242,-0.057983400000000004,-0.009216309,-13.679389000000002,2.0,-8.816792999999999,9
0.25152588,-0.06323242,-0.008178711,-14.854961,1.519084,-7.709923700000001,9
0.24963379,-0.07006836,-0.004882813,-13.534351000000001,4.2442746,-3.5877862,9
0.2514038,-0.06463623,-0.005126953,-14.9007635,2.4961832000000004,1.9236640999999999,9
0.25115967,-0.07098389,-0.003295898,-15.671756,2.7175572,6.0,9
0.2501831,-0.06518555,-0.015014648,-13.320610999999998,3.0305343,8.564885,9
0.25750732,-0.059265137,-0.014953613000000001,-14.442748000000002,3.2824428,8.862596,9
0.25311279999999997,-0.061767578,-0.015258788999999998,-9.534351,3.778626,9.404580000000001,9
0.24517822,-0.064331055,-0.01348877,-1.2061069,3.4427480000000004,8.610686999999999,9
0.25311279999999997,-0.051513672,-0.013916016000000002,0.9694656999999999,1.6564884999999998,7.076336,9
0.24365234,-0.05633545,-0.013061523,1.9847328999999998,1.519084,7.4274807,9
0.24914551,-0.053588867000000005,-0.015563965,4.183206,1.4961832,6.8320612999999994,9
0.24835205,-0.048950195,-0.014404297,8.671756,-0.17557251,6.0,9
0.24798584,-0.05340576,-0.014099121000000001,7.3053436000000005,0.8778626,5.091603299999999,9
0.24768066,-0.04449463,-0.014099121000000001,9.343511999999999,-1.4198473999999999,3.183206,9
0.25054932,-0.042053223,-0.005859375,10.725191,-0.29007635,2.9312978,9
0.25079346,-0.03918457,-0.010498047,10.381680000000001,-0.08396947,2.0610688,9
0.24450684,-0.041015625,-0.005126953,7.4885497,0.6793893,1.3740458,9
0.25842285,-0.042419434000000006,0.002746582,3.1450381000000003,2.389313,1.610687,9
0.2571411,-0.053771973,-0.00567627,0.83206105,2.0458016,0.7251908,9
0.2514038,-0.050109863,-0.004760742,-1.5572518999999998,3.7175572,0.16793893,9
0.24951172,-0.049682617000000005,-0.003112793,-1.5725191,4.7099237,-0.53435117,9
0.24902344,-0.058166504,-0.008056641,-2.221374,5.6106873,-1.4961832,9
0.2510376,-0.053649902,-0.012329102,-0.52671754,4.473282299999999,-1.7328244,9
0.25054932,-0.051879882999999995,-0.013366699,-0.610687,6.6946563999999995,-1.2366412,9
0.24890137,-0.05230713,-0.015258788999999998,-0.38167940000000006,3.8473281999999998,-1.2290076,9
0.24993896,-0.057250977,-0.014404297,1.6183206,3.5038167999999996,0.38167940000000006,9
0.25030518,-0.054504395,-0.012695313,3.8473281999999998,2.9770992,0.9236641,9
0.24987793,-0.053588867000000005,-0.011230469,1.5954198999999998,2.7099237,2.0076337,9
0.25079346,-0.049865723,-0.008911133,0.6183206,1.8091604,2.6946564,9
0.25097656,-0.05328369,-0.010681152,4.5038165999999995,1.6793894,2.9541984,9
0.24768066,-0.052856445,-0.007629395,0.8778626,2.7709923,3.832061,9
0.25201416,-0.050964355,-0.009460449000000001,2.4122138,2.9770992,3.038168,9
0.25079346,-0.04748535,-0.010192871,3.7251909,3.3893129999999996,2.7709923,9
0.2512207,-0.04547119,-0.007873535,2.6488549999999997,4.9770994,2.480916,9
0.24841309,-0.04736328,-0.006652831999999999,1.091603,4.442748,1.70229,9
0.24981689999999998,-0.04949951,-0.007751465,0.8091603,3.6946564,0.8778626,9
0.24822998,-0.048828125,-0.009887695,1.2748091000000001,4.9007635,0.053435113,9
0.24829102,-0.05078125,-0.01159668,-2.2824428,3.778626,0.45038167,9
0.24902344,-0.050842285,-0.009277344,1.9389313000000001,4.7557254,-0.43511450000000007,9
0.2510376,-0.05041504,-0.010498047,-0.45038167,2.7251909,-0.9236641,9
0.25183105,-0.053649902,-0.011413574,1.8015267,3.1984732000000005,0.15267175,9
0.25012207,-0.051208496,-0.008666992,2.4045799999999997,2.7633588,0.45801526,9
0.24829102,-0.054138184000000006,-0.008056641,2.129771,2.6488549999999997,0.99236643,9
0.25134277,-0.053344727,-0.007873535,2.946565,3.7557251000000003,0.8778626,9
0.25097656,-0.053955078,-0.008544922,2.6030533,3.1603053,2.557252,9
0.25054932,-0.05322265599999999,-0.008239746,2.442748,2.557252,1.6412214,9
0.24908447,-0.05279541,-0.006896973000000001,2.2442749,3.6259542000000002,1.4503816,9
0.25036620000000004,-0.054260254,-0.001525879,2.6564887,3.1145039,2.687023,9
0.24975586,-0.050842285,-0.0078125,3.8167940000000002,3.3893129999999996,1.5725191,9
0.24908447,-0.050842285,-0.007385254,5.068702,2.6793892,2.129771,9
0.25256348,-0.053833007999999995,-0.006530762,2.312977,2.6488549999999997,2.29771,9
0.25830078,-0.049438477,-0.003112793,3.8854961,3.8854961,2.076336,9
0.24902344,-0.046569824,-0.004943848,5.0992365,2.946565,1.4885496,9
0.25616455,-0.04931640599999999,-0.010009766,3.1374047000000003,2.9160306,1.0152671,9
0.24871826,-0.048095703,0.002319336,3.3969467000000004,2.9847328999999996,1.3129771000000001,9
0.24499512,-0.049133300000000005,-0.001586914,3.6946564,3.183206,0.9389313,9
0.25,-0.047180176,-0.003051758,2.206107,2.7328243,-0.77862597,9
0.25671387,-0.0390625,-0.009399414,3.091603,3.5190839999999994,0.6183206,9
0.25616455,-0.05242919999999999,-0.003112793,1.9541985,3.2137403,0.35114503,9
0.24255371,-0.04663086,-0.009399414,1.9541985,2.5954200000000003,0.16793893,9
0.24523926,-0.05102539,-0.006896973000000001,1.3587786,3.183206,0.43511450000000007,9
0.24694824,-0.049621582000000004,-0.005004883,1.2442749,2.4503817999999997,1.9007633999999998,9
0.2543335,-0.05316162,-0.002319336,3.6106870000000004,2.2748091,3.091603,9
0.24957275,-0.055114746,-0.0033569340000000002,0.6793893,1.4045801000000002,2.2442749,9
0.25152588,-0.053100586,-0.006774901999999999,2.572519,1.8854961,3.6946564,9
0.24981689999999998,-0.05126953,-0.006652831999999999,2.5419848,2.4732822999999997,3.3587787000000002,9
0.25091553,-0.056030273,-0.003540039,0.55725193,3.8167940000000002,3.6946564,9
0.25073242,-0.0546875,-0.006774901999999999,3.0610687999999997,2.4961832000000004,2.9541984,9
0.25384520000000005,-0.04864502,-0.00958252,3.0992367,3.0305343,3.870229,9
0.24597168,-0.05340576,-0.011047363000000001,5.1297708,0.9236641,3.8931297999999996,9
0.25036620000000004,-0.053649902,-0.012573242,2.5801528,2.9389312000000003,4.2519083,9
0.24896239999999997,-0.04925537,-0.006225586,3.183206,2.2137403,5.015267400000001,9
0.25012207,-0.05291748,-0.005065918,2.4961832000000004,1.7404580000000003,5.183206,9
0.24993896,-0.05102539,-0.002136231,0.78625953,1.7251908999999999,5.4961834000000005,9
0.25238037,-0.051696777,-0.004455565999999999,-0.89312977,2.5496182000000003,6.2977099999999995,9
0.25280762,-0.051086426,-0.005187988,-3.2519082999999998,2.9694657,5.6946564,9
0.25372314,-0.052612305,-0.006530762,1.1679389999999998,3.5496182000000003,5.366412,9
0.24896239999999997,-0.05126953,-0.006896973000000001,3.5267177000000003,3.3053436,2.9312978,9
0.24731445,-0.050109863,-0.011901856,8.091603,2.7709923,1.221374,9
0.24719238,-0.05102539,-0.007324219,2.778626,3.465649,0.64122134,9
0.24475098,-0.051452637,-0.005249023,6.7862597000000004,0.96183205,-0.19847329,9
0.24774169999999998,-0.05694580000000001,-0.0034179690000000003,4.114504,1.6641221000000002,-1.4045801000000002,9
0.25073242,-0.056762695,0.001586914,6.6870227,1.5801526000000001,-1.4122137,9
0.25146484,-0.057983400000000004,-0.000549,5.2137402999999996,3.3435113,-1.5648855,9
0.25024414,-0.05883789,0.0008539999999999999,2.4961832000000004,4.1603055,-0.77099234,9
0.25109863,-0.059814453,0.000793,2.8396947,5.328244000000001,0.32061067,9
0.2512207,-0.06237793,-0.004638672,5.923664,5.412214,0.83206105,9
0.24859619,-0.05895996,-0.005859375,8.167939,4.9389315,1.6412214,9
0.25006104,-0.05694580000000001,-0.008666992,6.3893127,4.3816795,2.8396947,9
0.24725342,-0.055236815999999994,-0.010620117,6.6946563999999995,2.427481,3.7328242999999994,9
0.24829102,-0.053344727,-0.010070800999999999,8.2213745,0.65648854,3.2748091,9
0.24560547,-0.05328369,-0.008361816,8.015267,0.08396947,2.465649,9
0.24737549,-0.051940917999999996,-0.005004883,7.778625999999999,0.2519084,2.519084,9
0.2536621,-0.054016113,0.002868652,7.259542,-1.389313,2.4122138,9
0.24969482,-0.051391599999999996,-0.002319336,9.106871,-0.65648854,0.77862597,9
0.25012207,-0.05078125,0.001525879,8.656488000000001,0.114503816,-1.0839695,9
0.24945068,-0.055786132999999995,-0.0010986330000000001,8.793892999999999,-0.06870229,-0.99236643,9
0.25610352,-0.043701172,0.006042481,9.717557000000001,0.045801528,-2.0152671000000004,9
0.23565674,-0.052490234000000004,-0.008178711,9.763359,0.08396947,-1.5496184,9
0.25561523,-0.051818848,-0.00189209,10.053435,0.38167940000000006,-1.6641221000000002,9
0.25531006,-0.056884765999999996,0.0,10.251908,-1.0763359,-2.4580152,9
0.24853516,-0.049621582000000004,0.005004883,8.412213000000001,0.4427481,-2.0076337,9
0.2553711,-0.057739257999999995,0.00177002,7.656488400000001,0.5954198,-0.41984734,9
0.24102783,-0.042785645,0.004638672,6.7328243,0.9694656999999999,1.0687023,9
0.24749756,-0.046081542999999996,-0.001037598,3.167939,2.0305343000000002,1.5267175,9
0.25097656,-0.046875,0.001220703,5.152672,1.7480916000000002,1.4351145,9
0.25299072,-0.043945312,-0.000244,3.8015267999999995,1.5419847,2.0,9
0.24584961,-0.04815674,-0.007751465,1.2442749,0.8396947,0.27480915,9
0.25036620000000004,-0.04815674,0.000488,3.9389312000000007,1.6870228999999999,0.77099234,9
0.25427246,-0.054138184000000006,-0.009460449000000001,3.5038167999999996,2.0610688,0.5114504,9
0.25054932,-0.05041504,-0.003051758,2.534351,0.9694656999999999,-0.32061067,9
0.24890137,-0.04309082,-0.005432129,3.7862597,0.77099234,-1.3587786,9
0.25164795,-0.045898438,-0.0026245120000000003,5.9160304,-0.8854962,-1.1679389999999998,9
0.24969482,-0.04260254,-6.1e-05,3.1374047000000003,0.55725193,-2.4732822999999997,9
0.25390625,-0.049926757999999995,0.00189209,1.2748091000000001,1.4427481000000002,-1.7633588,9
0.25219727,-0.050842285,0.002746582,2.7709923,0.8778626,-2.2671757,9
0.25091553,-0.049194336,0.001831055,1.1755725000000001,0.77862597,-1.389313,9
0.24786377,-0.050048828,0.00042699999999999997,-0.18320611,1.4961832,0.091603056,9
0.24682617,-0.05419922,0.00042699999999999997,-1.9160305,2.5954200000000003,-0.35114503,9
0.2508545,-0.053100586,-0.001953125,-0.259542,2.206107,0.45038167,9
0.2501831,-0.051452637,-0.005493164,0.061068702,1.9312977,1.648855,9
0.2508545,-0.050720215,-0.009094238000000001,-0.32061067,2.3053436,1.4732825,9
0.25012207,-0.050476074,-0.00402832,3.4580152,2.4351146,1.1832061000000003,9
0.25238037,-0.046325684000000006,-0.005554199,4.4580154,2.038168,2.1603053,9
0.25042725,-0.049743652,-0.005004883,3.6641220000000003,1.3129771000000001,0.5648854999999999,9
0.24938965,-0.04711914,-0.001159668,5.412214,1.0,2.3053436,9
0.25427246,-0.046325684000000006,-0.004211426,5.145038,0.90076333,1.5419847,9
0.2524414,-0.04473877,-0.0013427729999999998,4.076336,1.8625953999999998,1.2900764,9
0.25128174,-0.04498291,-0.002563477,2.6259542000000002,1.5496184,1.2671756,9
0.2501831,-0.04510498,-0.003845215,2.8931298,2.8473282,1.6870228999999999,9
0.25201416,-0.044311523,-0.003540039,0.60305345,2.1984732000000005,1.3816794,9
0.25061035,-0.04522705,-0.005554199,2.183206,2.3816792999999996,0.60305345,9
0.25054932,-0.047912598,-0.006774901999999999,2.053435,1.9694656000000004,0.3053435,9
0.24853516,-0.045715332000000004,-0.013244628999999999,3.0076337000000004,0.41984734,1.610687,9
0.25091553,-0.044921875,-0.007751465,2.908397,2.3511450000000003,1.2977100000000001,9
0.24749756,-0.042785645,0.001586914,-0.03816794,0.3740458,1.6030535,9
0.25170898,-0.046203613,-0.0014648439999999999,2.610687,2.1603053,1.6183206,9
0.25073242,-0.046691895,-0.003112793,-2.1145039,2.1450381000000003,1.4580153,9
0.25115967,-0.047424315999999994,-0.006164551,-0.2977099,2.6259542000000002,1.5801526000000001,9
0.25482178,-0.041015625,-0.00769043,0.007633588,2.6641220000000003,2.4351146,9
0.2467041,-0.04071045,-0.00390625,-0.54198474,2.519084,2.206107,9
0.25323486,-0.050720215,0.001525879,-1.6335878000000001,2.7099237,2.0229008,9
0.2467041,-0.048034667999999996,-0.01184082,0.28244275,1.6564884999999998,2.3816792999999996,9
0.2571411,-0.046020507999999995,-0.004211426,0.52671754,1.3282443000000002,2.1526718,9
0.24932861,-0.045654297,-0.00579834,0.519084,2.1603053,1.4351145,9
0.24249268,-0.04534912,-0.00982666,-0.259542,2.3664122000000005,2.572519,9
0.24951172,-0.044921875,-0.0029296879999999997,-0.38167940000000006,1.610687,2.1603053,9
0.24468994,-0.047973632999999995,-0.006408690999999999,-2.0839694,1.9083970000000001,2.3740457999999998,9
0.24743652,-0.048583984000000004,-0.004821777,-0.8854962,2.5114503,3.5801528,9
0.24859619,-0.04949951,-0.009216309,-2.6641220000000003,2.5954200000000003,2.6259542000000002,9
0.24829102,-0.05517578,-0.0026245120000000003,-0.40458015,1.8244275,2.8244274,9
0.24847412,-0.04748535,-0.009521484,0.90076333,2.0687022,3.6412212999999998,9
0.2576294,-0.048034667999999996,-0.0029296879999999997,-1.2290076,0.9312976999999999,2.2519082999999998,9
0.25268555,-0.05053711,-0.002258301,-1.5038168,5.6793895,5.816794,9
0.24755860000000002,-0.04443359400000001,-0.004211426,-3.946565,0.67175573,7.030534299999999,9
0.24914551,-0.046691895,-0.010803223,-0.740458,4.259542,5.4580154,9
0.24291992,-0.046813965,-0.010742188,4.2442746,3.7862597,2.389313,9
0.23144531,-0.044799805,-0.012390136999999999,5.9541984,1.9541985,-2.0305343000000002,9
0.24066162,-0.046936035,-0.0078125,7.160305499999999,0.90076333,-8.175572,9
0.24749756,-0.049682617000000005,-0.007751465,10.19084,1.1374046,-10.2595415,9
0.25604248,-0.050842285,-0.000488,6.6870227,0.71755725,-6.396946400000001,9
0.26849365,-0.05126953,-0.007629395,1.3740458,1.1374046,-0.015267176,9
0.26312256,-0.05126953,-0.005126953,-1.1145038999999999,2.0687022,6.587786,9
0.26599120000000004,-0.047607422,-0.008117675999999999,-8.931297,1.7709924,11.404580000000001,9
0.25,-0.047546387,-0.010620117,-8.885496,3.3587787000000002,13.511451000000001,9
0.24658203,-0.044067382999999995,-0.012634277,-8.908397,2.312977,12.572519,9
0.24114989999999997,-0.04309082,-0.012756348,-3.4427480000000004,0.129771,8.511451,9
0.24316406,-0.042175292999999996,-0.009399414,4.0229006,0.8854962,2.6335877999999995,9
0.24041748,-0.03918457,-0.005004883,6.6793895,2.778626,-1.9312977,9
0.23858643,-0.043884277,-0.00567627,5.4656487,1.4580153,-3.9160306000000005,9
0.24230957,-0.043884277,-0.0034179690000000003,2.7709923,1.4351145,-5.0839696,9
0.25097656,-0.044677734000000004,-0.003173828,-1.8320610000000002,0.091603056,-3.2137403,9
0.25927734,-0.04827881,-0.005004883,-4.0229006,0.23664123,-2.0458016,9
0.2626953,-0.04840088,-0.011230469,-2.7480917000000002,1.9770991999999998,-1.5954198999999998,9
0.26184082,-0.047607422,-0.014770508,-5.2824425999999995,2.6641220000000003,0.65648854,9
0.25396729999999995,-0.0501709,-0.013244628999999999,-4.6106873,2.5267177000000003,2.3206108,9
0.25195312,-0.04663086,-0.015319824,-1.8854961,-0.29007635,1.480916,9
0.24774169999999998,-0.051940917999999996,-0.014282227,-0.22137405,0.099236645,-1.8396946,9
0.24304199,-0.051208496,-0.013366699,7.740458,0.47328246,-3.076336,9
0.24078369,-0.05029297,-0.008911133,7.778625999999999,-1.389313,-3.1450381000000003,9
0.24987793,-0.054138184000000006,-0.008117675999999999,4.6412214999999994,-3.9312977999999994,-4.4274807,9
0.25927734,-0.05529785,-0.009216309,12.244275,-1.2671756,-4.923664,9
0.25726318,-0.052124023,-0.009338379,12.022901,0.740458,-3.3816792999999996,9
0.25610352,-0.050720215,-0.014038086000000002,9.931297,0.49618322,-1.9160305,9
0.25683594,-0.059020996,-0.002075195,17.732824,2.7557251,-1.961832,9
0.2571411,-0.043518065999999994,-0.003967285,20.282442,2.687023,-1.4580153,9
0.24572754,-0.04168701,-0.009155273,16.221375,2.7328243,-1.0229008,9
0.24774169999999998,-0.046081542999999996,-0.011962891000000002,19.931297,2.534351,-0.54198474,9
0.24682617,-0.042297363,-0.006713866999999999,18.816793,0.6259541999999999,0.007633588,9
0.24847412,-0.050109863,-0.008972168,20.251910000000002,-0.9160305000000001,-1.1374046,9
0.25634766,-0.042541504,-0.008728027,22.519083,1.9236640999999999,-1.5954198999999998,9
0.2524414,-0.04284668,0.000916,23.122137,1.9770991999999998,0.16030534,9
0.25732422,-0.035339355,0.001281738,15.450381,-0.16030534,1.3435115,9
0.26165770000000005,-0.043640137,-0.00402832,15.80916,2.5114503,1.6870228999999999,9
0.25250244,-0.033325195,-0.001525879,11.862596,3.1526718,0.48091602,9
0.24096679999999995,-0.035095215,0.000305,7.3129773,3.6335877999999995,-0.39694658,9
0.24560547,-0.040161132999999995,-0.000183,4.7709923,2.5877862,-0.77862597,9
0.25305176,-0.03479004,0.001525879,4.8778625,3.8625953,-0.17557251,9
0.25524902,-0.037963867000000005,-0.006530762,8.78626,1.2977100000000001,-0.4274809,9
0.2576294,-0.04534912,-0.004455565999999999,2.4351146,4.6183205,1.0076336,9
0.25012207,-0.038146973,0.0010986330000000001,2.8854961,3.3816792999999996,2.1374047000000003,9
0.2590332,-0.03942871,0.000122,0.8015267,3.778626,3.7480917000000002,9
0.25030518,-0.033508300000000005,-0.000549,0.2519084,3.5572519999999996,4.3587785000000006,9
0.25219727,-0.037597656,-0.003967285,-2.6335877999999995,4.2824425999999995,5.0076336999999995,9
0.24975586,-0.039855957000000004,-0.002746582,-4.9923663000000005,3.6259542000000002,4.5114503,9
0.24761963,-0.04248047,-0.003295898,-3.3893129999999996,4.091603299999999,3.4580152,9
0.24432373,-0.042541504,-0.008605957,-3.648855,2.2290077,4.6870227,9
0.24694824,-0.040405273,-0.013427733999999998,-1.8702290000000001,2.3053436,3.8473281999999998,9
0.24926758,-0.043029785,-0.007263184000000001,-0.57251906,1.3206106000000002,3.7328242999999994,9
0.25219727,-0.041381836,-0.005126953,-0.4427481,0.9312976999999999,3.6335877999999995,9
0.24963379,-0.042419434000000006,-0.005187988,-1.5877863,-0.053435113,3.6412212999999998,9
0.253479,-0.04852295,-0.0034179690000000003,-2.3664122000000005,0.79389316,4.625954,9
0.25354004,-0.042663574,-0.004150391,-0.19847329,2.4885497,5.343511599999999,9
0.25335693,-0.042785645,-0.004516602,-0.6488550000000001,1.9923664,4.6488547,9
0.24871826,-0.04559326,-0.003051758,-4.923664,2.572519,2.9847328999999996,9
0.25042725,-0.04748535,-0.007263184000000001,-2.7251909,2.534351,3.40458,9
0.25097656,-0.04638672,-0.0078125,-1.3664121999999999,1.6717557,3.534351,9
0.25152588,-0.049194336,-0.009643555,-3.6564887,2.427481,3.40458,9
0.25048828,-0.04901123,-0.009155273,-0.8167939000000001,1.8091604,3.6335877999999995,9
0.25024414,-0.048034667999999996,-0.010620117,0.8702290000000001,1.6412214,3.0458016,9
0.24896239999999997,-0.04888916,-0.008850098,1.1603054,2.3740457999999998,3.5038167999999996,9
0.25,-0.049682617000000005,-0.008483886999999999,2.0076337,1.480916,1.9007633999999998,9
0.24798584,-0.05065918,-0.006042481,2.793893,1.4045801000000002,3.4198472,9
0.25195312,-0.048950195,-0.006591797,2.908397,1.6641221000000002,4.4656487,9
0.25164795,-0.047912598,-0.006347656,2.5496182000000003,2.129771,4.587786,9
0.2526245,-0.04736328,-0.00567627,2.0992367,2.4198472,4.3893127,9
0.25457764,-0.054992676,-0.000793,-0.7480916,3.2442749,5.4198474999999995,9
0.25598145,-0.03503418,-0.002258301,1.6335878000000001,2.832061,3.7251909,9
0.25238037,-0.045837402,-0.008056641,1.0305344,3.7404580000000003,2.053435,9
0.24987793,-0.039489746,-0.014099121000000001,-1.9389313000000001,2.6946564,1.2137405,9
0.25878906,-0.048828125,-0.010437011999999999,-0.8396947,3.206107,0.70229006,9
0.24377441,-0.046081542999999996,-0.004821777,2.2366412,2.3358779999999997,0.26717559,9
0.25585938,-0.049621582000000004,-0.009643555,-0.46564886,1.221374,0.23664123,9
0.25976562,-0.047912598,-0.009094238000000001,1.0,1.0,0.31297709999999995,9
0.25323486,-0.044128417999999996,-0.007995606,2.7633588,0.6870229,0.6488550000000001,9
0.24572754,-0.053649902,-0.009399414,1.9923664,0.9236641,-0.114503816,9
0.25610352,-0.045288086,-0.008850098,3.6183207000000004,1.3129771000000001,0.77099234,9
0.25286865,-0.05114746,-0.002990723,1.9007633999999998,2.167939,1.9694656000000004,9
0.24920654,-0.045837402,0.002807617,2.3740457999999998,2.480916,2.3511450000000003,9
0.2526245,-0.05279541,-0.0008539999999999999,2.9770992,3.1374047000000003,1.8625953999999998,9
0.24212646,-0.049804688,-0.00592041,1.9770991999999998,4.0,2.4045799999999997,9
0.25231934,-0.049438477,-0.004577637,3.648855,5.8320612999999994,1.8549619,9
0.25268555,-0.047668457000000004,-0.004516602,0.7251908,2.923664,3.0610687999999997,9
0.2506714,-0.049133300000000005,-0.009399414,2.6946564,4.6412214999999994,2.2366412,9
0.25091553,-0.042175292999999996,-0.006896973000000001,3.076336,2.9541984,3.351145,9
0.2526245,-0.0501709,-0.0033569340000000002,-0.36641222,2.6641220000000003,2.2671757,9
0.24761963,-0.045288086,-0.002319336,0.26717559,2.5496182000000003,2.5419848,9
0.24731445,-0.046447754,-0.011108398,-2.053435,2.6793892,2.2595419999999997,9
0.24957275,-0.046875,-0.004394531,0.23664123,3.9007633000000004,2.0229008,9
0.24530029999999997,-0.04833984400000001,-0.009399414,0.27480915,3.465649,1.6412214,9
0.24920654,-0.051635742000000005,-0.010009766,-1.2977100000000001,2.312977,1.8244275,9
0.24981689999999998,-0.051208496,-0.008666992,-1.9847328999999998,3.1755726,1.5572518999999998,9
0.24932861,-0.046875,-0.006286621,-0.8015267,3.59542,1.610687,9
0.24920654,-0.04888916,-0.008117675999999999,-2.5038167999999996,2.6259542000000002,3.0687022,9
0.25250244,-0.049560547,-0.00793457,-3.5114503,3.648855,3.4427480000000004,9
0.2510376,-0.050598145,-0.012084961000000002,-1.9465648999999998,3.5648854,3.091603,9
0.24822998,-0.049072265999999996,-0.002563477,-0.9847328000000002,4.0839696000000005,3.9312977999999994,9
0.24591064,-0.051391599999999996,-0.004638672,-1.2824427,4.7022900000000005,1.6030535,9
0.24676514,-0.047546387,-0.010925293,-0.86259544,3.9007633000000004,-0.091603056,9
0.24975586,-0.04949951,-0.006286621,0.60305345,4.2900763,0.41984734,9
0.25024414,-0.050354004,-0.009155273,0.84732825,3.8549618999999997,-0.41984734,9
0.25048828,-0.04864502,-0.010070800999999999,2.2900763,3.4732822999999997,-0.6335878,9
0.24926758,-0.04815674,-0.008483886999999999,3.2824428,3.1526718,-0.8778626,9
0.24804688,-0.049865723,-0.012573242,5.0839696,-0.54198474,-0.045801528,9
0.25097656,-0.050720215,-0.008178711,0.9465648999999999,2.572519,0.28244275,9
0.25396729999999995,-0.04888916,-0.001403809,-0.27480915,2.1145039,1.5954198999999998,9
0.25238037,-0.047180176,-0.001403809,0.06870229,4.3893127,1.8702290000000001,9
0.24926758,-0.045166015999999996,-0.0032348629999999997,-0.32824427,3.4885497,1.2977100000000001,9
0.24963379,-0.047668457000000004,-0.005004883,0.24427481,3.1450381000000003,0.5954198,9
0.25115967,-0.04541015599999999,-0.006286621,-1.4961832,4.8320612999999994,0.022900764,9
0.2501831,-0.04626465,-0.008605957,2.1221373,3.8015267999999995,-0.89312977,9
0.2501831,-0.04724121,-0.009643555,0.015267176,4.2748094000000005,-1.0,9
0.2508545,-0.04522705,-0.015258788999999998,2.6488549999999997,2.4198472,-2.2595419999999997,9
0.2541504,-0.04937744,0.002868652,3.923664,2.4503817999999997,-2.0610688,9
0.25323486,-0.04888916,-0.005371094,3.183206,3.053435,-1.7175573,9
0.24688720000000003,-0.04534912,-0.004943848,4.9541984,3.0839694,-1.0610687,9
0.24737549,-0.049926757999999995,0.0034179690000000003,2.5954200000000003,0.99236643,0.061068702,9
0.25769043,-0.051757812,-0.005126953,2.5114503,3.2366412,0.7099236999999999,9
0.24578857,-0.047790527,0.001220703,4.7099237,2.7633588,-0.38167940000000006,9
0.24719238,-0.04931640599999999,-0.001708984,3.3435113,2.6717557999999997,1.1068702,9
0.25665283,-0.051391599999999996,-0.00390625,1.1374046,2.8473282,1.4427481000000002,9
0.24987793,-0.04827881,-0.002990723,2.6488549999999997,3.7404580000000003,2.2900763,9
0.24853516,-0.04034424,-0.000732,4.335878,3.7862597,1.4045801000000002,9
0.24737549,-0.04675293,-0.003540039,2.2519082999999998,4.1755724,2.1068702,9
0.24755860000000002,-0.048461914,-0.002990723,-0.03816794,3.648855,3.351145,9
0.24829102,-0.049194336,-0.003662109,3.3587787000000002,4.366412,4.076336,9
0.24713135,-0.042907715,-0.002990723,1.7938931,3.206107,4.10687,9
0.25097656,-0.046020507999999995,-0.003173828,1.221374,2.8549618999999997,3.8396947,9
0.25061035,-0.04119873,-0.004150391,1.7480916000000002,2.29771,3.5877862,9
0.2506714,-0.04272461,-0.003540039,1.0839695,0.38167940000000006,2.8625952999999997,9
0.24859619,-0.044799805,-0.002136231,2.4503817999999997,0.8167939000000001,1.5801526000000001,9
0.24902344,-0.04473877,-0.002136231,0.114503816,1.0534351,1.9694656000000004,9
0.24902344,-0.048461914,-0.004211426,2.5648854,-0.18320611,1.8549619,9
0.24945068,-0.049438477,-0.001647949,0.78625953,-0.28244275,0.70229006,9
0.25463867,-0.045837402,-0.005554199,1.1068702,0.47328246,1.389313,9
0.25439453,-0.04663086,-0.0034790040000000004,0.9312976999999999,-0.60305345,1.4045801000000002,9
0.258667,-0.04650879,-0.000549,1.4503816,-1.259542,-0.030534351,9
0.25561523,-0.04486084,-0.000732,2.2137403,1.1297709999999999,1.9389313000000001,9
0.25109863,-0.04827881,0.004516602,-3.908397,-0.8854962,3.6412212999999998,9
0.26049805,-0.04058838,-0.00402832,-5.603053599999999,-0.045801528,4.984732599999999,9
0.2559204,-0.039733887,0.000793,-12.374044999999999,1.8625953999999998,4.664122,9
0.24969482,-0.04296875,-0.001403809,-5.7862597000000004,2.4961832000000004,2.3664122000000005,9
0.24542236,-0.03967285,-0.007568359,0.46564886,4.3816795,-2.0992367,9
0.23675537,-0.04083252,-0.006958008000000001,12.175572,4.526717700000001,-8.480916,9
0.2364502,-0.041503906,-0.007202148,17.57252,3.2290077,-17.42748,9
0.24511719,-0.04699707,-0.00970459,19.053434,4.114504,-24.099237,9
0.25317383,-0.051574707000000004,-0.006896973000000001,22.816793,5.1984735,-26.343512,9
0.26367188,-0.054748535,-0.004394531,18.076335999999998,4.190840000000001,-23.198473,9
0.26531982,-0.056030273,-0.004638672,13.740458499999999,4.5801525000000005,-13.549619,9
0.26367188,-0.055114746,-0.00567627,13.442748000000002,3.0305343,-4.053435299999999,9
0.2626953,-0.051574707000000004,-0.009765625,5.656488400000001,1.6793894,7.9923663000000005,9
0.25671387,-0.047180176,-0.009216309,4.8015265,0.99236643,16.366413,9
0.25061035,-0.041625977,-0.013061523,4.961832,-2.572519,21.679389999999998,9
0.24981689999999998,-0.034606934,-0.010925293,5.931298,-5.091603299999999,24.534351,9
0.25384520000000005,-0.03186035,-0.008544922,-0.26717559,-7.19084,26.274809,9
0.2524414,-0.03314209,-0.011047363000000001,2.1908397999999996,-3.8473281999999998,25.541985,9
0.25048828,-0.02722168,-0.0021972660000000002,5.3816795,-2.6564887,19.900763,9
0.25701904,-0.020996094,0.003540039,0.099236645,-1.5419847,17.862595000000002,9
0.258667,-0.022827148,-0.001159668,-12.580152499999999,0.54198474,14.870229,9
0.25524902,-0.02709961,0.000305,-10.969465,4.5725193,10.396947,9
0.26013184,-0.028625487999999998,-0.005187988,-15.435115,4.0,5.961832,9
0.2501831,-0.04058838,-0.00579834,-17.396946,7.5801525,2.6412212999999998,9
0.25445557,-0.042785645,-0.008239746,-13.854961,6.6335880000000005,-1.8931297999999999,9
0.24560547,-0.040649414,-0.004577637,-10.832061,10.442748,-4.1297708,9
0.24444580000000002,-0.054016113,-0.005859375,-12.022901,8.114504,-5.557252,9
0.24041748,-0.0501709,-0.008422852,-12.679389,10.854961,-1.0152671,9
0.23205566,-0.04931640599999999,0.00061,-14.687023000000002,3.2137403,-0.610687,9
0.246521,-0.055358887,-0.007263184000000001,-13.427481,3.7709922999999996,-3.3664122000000005,9
0.24609375,-0.062683105,-0.017333984,-3.5190839999999994,6.4885497,-7.221374000000001,9
0.25494385,-0.06005859400000001,-0.008117675999999999,0.8091603,4.2290077,-10.061069,9
0.25567627,-0.06506348,-0.013244628999999999,-0.97709924,8.183207000000001,-8.694656,9
0.24969482,-0.061950684000000006,-0.00970459,-2.4580152,3.9389312000000007,-3.9007633000000004,9
0.25073242,-0.062072754,-0.011352538999999998,3.5190839999999994,6.068702,2.442748,9
0.2454834,-0.06005859400000001,-0.005737305,6.8320612999999994,4.259542,5.6183205,9
0.24609375,-0.055358887,-0.019042969,0.091603056,2.8778627,5.9389315,9
0.23974610000000002,-0.059204099999999996,-0.00793457,4.7099237,5.3129773,5.9541984,9
0.24987793,-0.05218506,-0.00958252,8.946565,-2.519084,4.396946400000001,9
0.25128174,-0.04852295,-0.014160156,8.503817,2.6030533,5.221374,9
0.24865723,-0.04931640599999999,-0.0034790040000000004,10.114504,0.8167939000000001,7.374046000000001,9
0.25524902,-0.040222167999999996,-0.004455565999999999,10.572519,-0.90839696,8.824428,9
0.24664307,-0.039916992000000005,-0.0034790040000000004,10.572519,1.1984733,8.916031,9
0.23730469,-0.042541504,-0.000916,11.931297,-0.129771,8.290076,9
0.24371338,-0.04046631,-0.005859375,10.862596,-2.778626,5.2137402999999996,9
0.24633789,-0.03955078,-0.007873535,7.40458,0.099236645,1.6641221000000002,9
0.25134277,-0.04248047,-0.002990723,6.3206105,-0.022900764,-0.26717559,9
0.2584839,-0.046936035,-0.00579834,-0.8167939000000001,2.3511450000000003,0.9694656999999999,9
0.26153564,-0.04437256,-0.0021972660000000002,1.3053435,3.3664122000000005,1.7862595000000001,9
0.26379395,-0.04833984400000001,-0.001037598,-0.9694656999999999,2.0687022,0.96183205,9
0.25457764,-0.050842285,0.000488,2.8473282,4.8015265,-0.17557251,9
0.25421143,-0.050354004,0.001586914,3.4961832000000004,4.3816795,-0.122137405,9
0.25360107,-0.05102539,0.00177002,1.6564884999999998,8.534351,-1.7938931,9
0.24896239999999997,-0.051208496,0.004638672,-1.1679389999999998,8.374044999999999,-0.045801528,9
0.25280762,-0.05053711,0.004272461,-2.183206,8.145039,3.4732822999999997,9
0.2559204,-0.04675293,0.005493164,-7.3129773,10.381680000000001,9.106871,9
0.24987793,-0.039916992000000005,0.00177002,-17.045801,11.526717,15.236641,9
0.24285889,-0.041992188,-0.0021972660000000002,-24.145039,8.938931,17.87023,9
0.24584961,-0.040283203,-0.002746582,-19.045801,7.4351144,17.229008,9
0.24462889999999998,-0.038146973,-0.0033569340000000002,-23.145039,9.832061,14.244275,9
0.23968506,-0.039123535,-0.002136231,-23.396946,8.305344,10.969465,9
0.24310303,-0.038757323999999996,6.1e-05,-24.587785999999998,6.4656487,5.557252,9
0.2454834,-0.043395996,-0.002563477,-22.183207,7.4351144,0.519084,9
0.24511719,-0.044677734000000004,-0.0029296879999999997,-18.801527,6.6183205,-3.9923663,9
0.24682617,-0.04473877,-0.002990723,-19.366413,6.9923663000000005,-7.7480917,9
0.25476074,-0.050476074,-0.001037598,-21.290077,6.2900763,-11.587786999999999,9
0.25268555,-0.055480957000000004,-0.00201416,-18.557251,7.091603299999999,-13.259541500000001,9
0.24841309,-0.054626465,0.00061,-17.717558,8.870229,-14.114504,9
0.24841309,-0.05810547,-0.002990723,-17.549618,5.9160304,-13.343511999999999,9
0.24694824,-0.06640625,-0.006286621,-16.297710000000002,5.7022900000000005,-12.641221,9
0.25115967,-0.06610107400000001,-0.004211426,-13.0992365,7.152672,-10.687023,9
0.23791504,-0.07104492,-0.002319336,-10.931297,4.076336,-10.183207000000001,9
0.25048828,-0.0769043,-0.006958008000000001,-2.465649,3.3282442000000003,-8.435115,9
0.2508545,-0.08062744,-0.004943848,8.687023,2.946565,-9.450381,9
0.2578125,-0.07196045,-0.005432129,16.587785999999998,1.9923664,-6.2824425999999995,9
0.24676514,-0.06671142599999999,-0.0034179690000000003,16.748089999999998,-0.091603056,-1.3969465,9
0.2524414,-0.06408691400000001,-0.007324219,14.633588,-1.648855,3.4274809999999998,9
0.2518921,-0.064453125,0.001647949,17.48855,0.77862597,8.839694999999999,9
0.25830078,-0.049987792999999996,0.004516602,15.328244,-1.7251908999999999,12.832061,9
0.25042725,-0.05230713,0.001037598,9.732824,-1.3358778999999998,17.328245000000003,9
0.2529297,-0.045654297,0.002502441,9.603053,-0.64122134,19.244274,9
0.24780273,-0.04486084,0.002380371,10.297709,-1.1297709999999999,19.793894,9
0.25280762,-0.038513184,0.003540039,10.374044999999999,-0.19847329,18.91603,9
0.2518921,-0.03491211,-0.0013427729999999998,11.511451,1.1145038999999999,15.076335999999998,9
0.24890137,-0.031677246,-0.000244,6.6106872999999995,2.4503817999999997,11.801527,9
0.246521,-0.035705566,0.0014648439999999999,0.41984734,3.1603053,6.6106872999999995,9
0.24359131,-0.039367676000000004,-0.004882813,2.1755726,2.816794,1.4503816,9
0.24279785,-0.04119873,-0.003723145,5.4885497,3.3664122000000005,-2.2748091,9
0.24194336,-0.042297363,-0.002136231,6.0610685,2.2290077,-5.5038165999999995,9
0.24407959,-0.046020507999999995,-0.002807617,3.7709922999999996,2.519084,-7.587786,9
0.25360107,-0.046203613,0.000549,3.2824428,3.1908397999999996,-8.137404,9
0.25494385,-0.049072265999999996,0.001220703,2.1374047000000003,2.2900763,-8.748092,9
0.2520752,-0.05053711,0.004272461,1.6412214,3.8778627,-8.412213000000001,9
0.25469970000000003,-0.053588867000000005,0.001831055,-0.28244275,3.7862597,-7.3206105,9
0.2514038,-0.05609131,0.002502441,-1.5801526000000001,5.236641400000001,-6.80916,9
0.24981689999999998,-0.05859375,-0.001953125,0.7480916,3.8778627,-2.6793892,9
0.2548828,-0.059814453,-0.00189209,-1.0305344,4.671755999999999,-0.97709924,9
0.2515869,-0.056030273,-0.001220703,-0.65648854,4.908396700000001,2.8396947,9
0.25030518,-0.053894042999999996,-0.002868652,-0.6793893,3.0839694,5.5725193,9
0.25054932,-0.050598145,-0.000366,-1.7404580000000003,3.7709922999999996,8.549619,9
0.24902344,-0.04699707,-0.003723145,0.28244275,2.4122138,8.473283,9
0.25012207,-0.04815674,-0.000793,-1.8625953999999998,1.9694656000000004,8.7404585,9
0.25231934,-0.047668457000000004,-0.000977,0.90839696,1.519084,9.511451,9
0.24682617,-0.046142578,0.00042699999999999997,0.22900763,2.4351146,9.358779,9
0.24725342,-0.045776367000000005,-0.004638672,-0.122137405,-0.45038167,7.1679387000000006,9
0.24719238,-0.04498291,0.002319336,-2.053435,1.1679389999999998,5.656488400000001,9
0.25054932,-0.04650879,0.002685547,-3.1984732000000005,0.53435117,3.6717557999999997,9
0.24993896,-0.046569824,0.002319336,-2.29771,2.8854961,2.038168,9
0.24438477,-0.04949951,0.004333496,-2.946565,2.1374047000000003,0.5648854999999999,9
0.24963379,-0.051818848,0.0013427729999999998,-2.480916,2.5496182000000003,0.099236645,9
0.25006104,-0.053771973,-0.001403809,-1.1984733,4.2671757,-0.41221374,9
0.24584961,-0.053100586,-6.1e-05,-3.7480917000000002,3.2290077,-0.97709924,9
0.2518921,-0.05670166,0.000916,-2.312977,3.6030532999999996,-0.64122134,9
0.24365234,-0.05657959,-0.005004883,-0.6259541999999999,3.2671757,0.47328246,9
0.25097656,-0.05718994,0.002319336,0.091603056,2.5038167999999996,0.129771,9
0.24633789,-0.059204099999999996,-0.000305,0.19847329,2.1984732000000005,1.8625953999999998,9
0.26086426,-0.05834961,-0.0034790040000000004,-0.79389316,3.29771,3.038168,9
0.24475098,-0.061767578,-0.002075195,0.091603056,2.5038167999999996,3.6870230000000004,9
0.2522583,-0.061828613,0.001647949,-0.49618322,1.4274809,5.3511453,9
0.24542236,-0.05657959,-0.0008539999999999999,0.7099236999999999,0.65648854,6.7709923,9
0.24609375,-0.053527832000000004,0.006164551,-4.366412,0.35877863,9.923664,9
0.24615479,-0.052856445,0.004272461,-10.335877,-0.10687023,12.519084,9
0.25250244,-0.049438477,-0.008789063,-10.435115,-1.7786259999999998,14.351145,9
0.25378418,-0.05444336,-0.004089356,-7.839694500000001,-0.7251908,11.916031,9
0.24694824,-0.05065918,-0.004577637,-8.671756,-0.15267175,10.183207000000001,9
0.24530029999999997,-0.051513672,-0.006774901999999999,-7.458015400000001,-2.0,7.9465647,9
0.24627686,-0.056518555,0.000793,-4.740458,-1.4274809,3.5572519999999996,9
0.25335693,-0.054870605,-0.007385254,3.5877862,-3.8625953,-1.1679389999999998,9
0.24774169999999998,-0.06408691400000001,-0.004455565999999999,11.022901,3.076336,-6.3587785000000006,9
0.23937988,-0.06652832,0.006713866999999999,14.961832000000001,2.2519082999999998,-10.083969,9
0.23455810000000002,-0.06604004,0.002563477,17.08397,5.557252,-11.78626,9
0.22668457,-0.06689453,0.004943848,17.42748,6.80916,-9.534351,9
0.23199463,-0.05444336,0.007568359,4.6106873,0.32824427,-5.091603299999999,9
0.24938965,-0.07147217,-0.010986328,-0.4274809,-1.7862595000000001,-0.6870229,9
0.25982666,-0.06213379,-0.014526367,6.89313,-0.58778626,0.7099236999999999,9
0.26629640000000004,-0.057556152,-0.016235351999999998,-0.22900763,-4.6488547,3.870229,9
0.27069092,-0.059570312,-0.01977539,2.183206,-4.885496,4.2977099999999995,9
0.2658081,-0.055480957000000004,-0.014770508,8.770992,-2.7251909,4.2671757,9
0.26226807,-0.052734375,-0.017028809,9.404580000000001,-7.839694500000001,3.6641220000000003,9
0.25384520000000005,-0.053527832000000004,-0.006164551,19.57252,-5.8320612999999994,2.1603053,9
0.24279785,-0.048095703,-0.00177002,26.099237,-4.557252,1.4351145,9
0.23455810000000002,-0.04626465,0.006530762,24.908398000000002,-3.7557251000000003,0.32824427,9
0.23535156,-0.043762207000000004,0.016235351999999998,18.465649,-1.0,-2.442748,9
0.23992919999999998,-0.041992188,0.016723633,12.610686999999999,1.3358778999999998,-4.847328,9
0.24841309,-0.044555664,0.008972168,7.7480917,2.961832,-7.8778625,9
0.25500488,-0.046020507999999995,0.003601074,7.816794,7.9160304,-10.351144999999999,9
0.26086426,-0.042175292999999996,-0.002075195,2.206107,10.381680000000001,-9.816792999999999,9
0.26110839999999996,-0.04473877,-0.012145996000000001,-4.8396945,9.290076,-10.206107000000001,9
0.25634766,-0.049987792999999996,-0.018188476999999998,1.8473282,7.236641400000001,-10.183207000000001,9
0.25457764,-0.04925537,-0.020141601999999998,3.6717557999999997,3.0,-7.900763499999999,9
0.24987793,-0.049560547,-0.018493652,3.2671757,1.038168,-5.740458,9
0.24273682,-0.050720215,-0.024536132999999998,5.740458,-4.7175574000000005,-1.5877863,9
0.24395752,-0.050720215,-0.010253906,3.870229,-4.1297708,0.091603056,9
0.24255371,-0.04949951,-0.002258301,6.793893300000001,-4.396946400000001,2.0610688,9
0.23828125,-0.048461914,0.009094238000000001,4.0992365,-4.6946564,4.809159999999999,9
0.25128174,-0.045898438,0.0078125,-0.6793893,-2.557252,7.068702,9
0.24786377,-0.053771973,0.008361816,-0.46564886,0.90076333,7.534351299999999,9
0.2562256,-0.040039062,0.004516602,-6.5648856,4.7557254,7.030534299999999,9
0.25305176,-0.04827881,-0.00061,-12.404580000000001,6.3129773,6.5725193,9
0.24804688,-0.037902832000000004,-0.007080078,-11.274809,8.366412,5.328244000000001,9
0.24664307,-0.047302246,-0.013854981,-8.389313000000001,3.908397,4.10687,9
0.24658203,-0.033691406,-0.012512207,-14.946565,4.3129773,3.7480917000000002,9
0.24993896,-0.038513184,-0.013427733999999998,-18.519083,4.8702292,4.1297708,9
0.25030518,-0.03753662,-0.008178711,-17.57252,1.7099236,2.3511450000000003,9
0.24615479,-0.041809082000000004,-0.005859375,-13.564885,-0.4274809,1.2366412,9
0.24597168,-0.03540039,-0.008544922,-14.732823999999999,0.045801528,-0.9694656999999999,9
0.24975586,-0.033569336,-0.010498047,-14.488548999999999,-0.45038167,-2.9541984,9
0.26092529999999997,-0.028930664,-0.011657715,-15.290076000000001,1.3969465,-4.9007635,9
0.2529297,-0.036315917999999996,-0.011657715,-16.465649,0.79389316,-4.763358599999999,9
0.2510376,-0.035888672,-0.016662598,-19.610687,-0.5801527,-5.6412214999999994,9
0.24798584,-0.036499023,-0.016052246000000003,-27.10687,2.312977,-4.885496,9
0.24414062,-0.04046631,-0.020202637,-35.076336,0.9389313,-5.076336,9
0.24743652,-0.041137695,-0.024658202999999997,-33.931297,0.47328246,-5.7328243,9
0.246521,-0.04888916,-0.024597168,-32.267174,-1.351145,-9.610686999999999,9
0.24371338,-0.046142578,-0.021728516,-23.961832,-1.9541985,-15.648855,9
0.24584961,-0.05279541,-0.020874023000000002,-13.656488000000001,0.65648854,-20.57252,9
0.25842285,-0.053588867000000005,-0.025512695,-7.9923663000000005,-0.061068702,-22.213741,9
0.25036620000000004,-0.052001953,-0.015441895,-5.8015265,-1.5419847,-19.732824,9
0.26629640000000004,-0.0546875,-0.01348877,-11.648855000000001,-3.091603,-17.297710000000002,9
0.27032470000000003,-0.044006348,-0.010986328,-16.068703,2.3282442000000003,-10.557252,9
0.25860596,-0.04925537,-0.006469727,-23.763360000000002,-3.2442749,-1.7786259999999998,9
0.25439453,-0.051818848,-0.008117675999999999,-33.961834,1.3664121999999999,5.519083999999999,9
0.25384520000000005,-0.059387207000000004,-0.009948731,-32.725190000000005,-2.9160306,9.122137,9
0.25421143,-0.0647583,-0.005126953,-12.984733,-0.7099236999999999,7.152672,9
0.2456665,-0.058288574,-0.010559082,9.068703,5.183206,4.038168,9
0.24365234,-0.054016113,-0.003723145,12.358779,4.10687,2.183206,9
0.25201416,-0.051696777,-0.007568359,10.595419999999999,5.854962,-2.2442749,9
0.24737549,-0.051086426,-0.009033203,18.213741,10.870229,-2.2671757,9
0.24865723,-0.046203613,-0.010498047,13.938931,8.931297,-1.4961832,9
0.24542236,-0.049133300000000005,-0.011291503999999999,3.3282442000000003,10.183207000000001,2.7099237,9
0.24420166,-0.05224609400000001,-0.013122558999999999,7.2824425999999995,11.0,4.961832,9
0.24060059,-0.047302246,-0.011474608999999998,3.6335877999999995,13.877863,10.419847500000001,9
0.24804688,-0.049743652,-0.010742188,-3.8015267999999995,8.854961,13.885496,9
0.26281738,-0.046325684000000006,-0.01586914,-6.4885497,11.061069,18.053434,9
0.28033447,-0.036193848,-0.023803711,-11.251908,9.694656,20.160304999999997,9
0.30670166,-0.026733398,-0.0357666,-26.374046000000003,4.6946564,16.190839999999998,9
0.30169678,-0.026245117000000002,-0.04675293,-45.969467,14.664123000000002,14.320610999999998,9
0.27166748,-0.043518065999999994,-0.025756836,-67.89313,6.2824425999999995,17.603054,9
0.26159668,-0.06469726599999999,-0.03692627,-30.396946000000003,-10.198473,8.297709,9
0.24206543,-0.060546875,-0.016296387,15.19084,-1.648855,6.59542,9
0.22851562,-0.03967285,-0.001037598,28.625953999999997,-10.694656,8.114504,9
0.23474121,-0.052612305,0.000671,30.969465000000003,-11.603053,11.022901,9
0.23535156,-0.040100098,-0.002868652,42.244274,2.5114503,13.664123000000002,9
0.23352051,-0.023071289,0.010986328,29.885496000000003,10.671756,13.068703,9
0.25665283,-0.014587402,0.001037598,-8.824428,11.335877,9.366412,9
0.25408936,-0.038024902,0.007629395,-39.229008,17.679389999999998,7.763358599999999,9
0.23608398,-0.057006836,-0.020996094,-31.717558,19.206106,5.59542,9
0.22113037,-0.051757812,-0.01361084,-5.5343513,24.961832,5.6183205,9
0.23461914,-0.050842285,-0.007446289,2.038168,17.679389999999998,5.0305343,9
0.25152588,-0.05255127,-0.021362305,18.10687,21.08397,5.2824425999999995,9
0.25201416,-0.042419434000000006,-0.021362305,33.007633,21.557251,5.335878,9
0.25823975,-0.037231445,-0.024841309,31.969465000000003,14.305344,4.664122,9
0.26165770000000005,-0.039489746,-0.021911621000000003,37.9771,14.854961,3.4122138,9
0.24310303,-0.03277588,-0.018554688,42.343509999999995,12.793892999999999,0.13740458,9
0.24591064,-0.0357666,-0.022827148,35.251907,9.816792999999999,-2.1984732000000005,9
0.23809814,-0.042053223,-0.016906738,33.0,5.328244000000001,-5.4351144,9
0.23260498,-0.04272461,-0.00592041,38.137405,3.4580152,-7.4351144,9
0.23913574,-0.045654297,-0.007629395,36.816795,-1.1145038999999999,-11.267176,9
0.23394775,-0.053894042999999996,-0.003295898,34.374046,0.27480915,-12.480916,9
0.23333739999999997,-0.054382324,-0.000793,40.312977000000004,-3.8854961,-14.587786999999999,9
0.24468994,-0.050598145,0.007446289,35.480915,-4.664122,-14.259541500000001,9
0.25079346,-0.062438965,0.013427733999999998,29.595419,-5.603053599999999,-14.335876999999998,9
0.2456665,-0.0680542,0.012268066000000001,37.610687,-5.519083999999999,-12.160305000000001,9
