Acc_X,Acc_Y,Acc_Z,Gyr_X,Gyr_Y,Gyr_Z,Label
0.09436035,0.061645507999999995,-0.01763916,-31.946565999999997,42.702290000000005,-51.404579999999996,6
0.1104126,0.06604004,-0.01727295,-25.419847,48.633587,-41.587788,6
0.09954834,0.07318115,-0.018066406,-13.580152499999999,43.48855,-28.816793,6
0.08636474599999999,0.07220459,-0.018188476999999998,17.908398000000002,37.450382,-39.954197,6
0.08569336,0.05718994,-0.020751953,26.717558,37.625954,-54.435116,6
0.09161377,0.06469726599999999,-0.013061523,46.580154,33.91603,-25.694656,6
0.09967041,0.06024169999999999,-0.010192871,34.419846,33.412212,-39.961834,6
0.10290527,0.07183838,-0.010314941,-3.351145,36.717556,-26.259542,6
0.10650635,0.06768799,-0.013305663999999998,-23.923664000000002,15.267176000000001,-35.328243,6
0.09552002,0.08453369,-0.0064697266000000005,-43.198475,37.267174,-25.824427,6
0.09051514,0.074157715,-0.017822266,-7.137404400000001,33.038166,-34.770992,6
0.08538818,0.07067871,-0.009094238000000001,-3.7709922999999996,35.503820000000005,-27.839695000000003,6
0.08947754,0.0690918,-0.007690429699999999,-12.480916,33.045803,-22.91603,6
0.09277344,0.08087158,-0.00030517580000000003,3.2366412,26.580153000000003,-20.0,6
0.09924316400000001,0.07855224599999999,0.015686035,31.030534999999997,26.290077,-20.396946,6
0.09869385,0.07128906,0.005004883,52.068703,25.022902,-17.801527,6
0.10394287,0.064575195,0.008056641,43.480915,21.847328,-26.366413,6
0.10485839999999998,0.06610107400000001,0.008422852,57.038166000000004,13.534351000000001,-11.2213745,6
0.101501465,0.05419922,0.011474608999999998,74.43511,7.10687,-11.664123,6
0.1071167,0.05621338,0.012634277,61.274809999999995,13.916031,-1.6717557,6
0.09875488,0.048217773,0.00970459,66.78626,16.244274,-10.442748,6
0.099609375,0.04449463,0.009460449000000001,66.75572,10.916031,-4.2290077,6
0.09527588,0.041870117000000005,0.006958008000000001,70.00764000000001,9.351144999999999,-0.39694658,6
0.097839355,0.044067382999999995,0.0034790040000000004,60.648853,14.59542,14.832060999999998,6
0.09539795,0.041259766,0.0009155273,60.335876,11.793892999999999,23.809160000000002,6
0.10168457,0.04663086,-0.0032348633000000003,43.778625,11.755725,34.93893,6
0.10583496,0.05621338,-0.015563965,36.679390000000005,21.541985,33.992367,6
0.10235596,0.06933594,-0.03265381,76.58015400000001,20.458015,42.427483,6
0.11328125,0.07623291,-0.013366699,32.519085,19.931297,21.221375,6
0.104003906,0.08691406,-0.027832031,53.549618,16.045801,25.091601999999998,6
0.10491943,0.0647583,-0.031433105,46.641220000000004,21.603054,2.206107,6
0.10437012,0.06854248,-0.036254882999999995,59.900764,14.816792999999999,20.450382,6
0.10418701,0.05517578,-0.026062012000000002,83.20611,7.923664,8.9007635,6
0.09967041,0.051391599999999996,-0.024169922000000003,73.67939,14.045801,23.923664000000002,6
0.10278319999999999,0.04748535,-0.028137207,66.60305,29.534351,18.274809,6
0.10028076,0.04144287,-0.027404785,67.37405,36.473279999999995,14.251907999999998,6
0.09967041,0.034240723,-0.017944336,62.22900799999999,50.206109999999995,14.290076000000001,6
0.09808349599999999,0.025634766,-0.02508545,51.85496,60.320609999999995,14.931297,6
0.09631348,0.018920898000000002,-0.032470703,64.47328,62.702290000000005,16.824427,6
0.09881592,0.014892578,-0.027526855,89.87786,55.015266000000004,26.022902,6
0.10357666,0.0036010741999999997,-0.026428222999999997,113.92367,41.251907,38.770992,6
0.10650635,-0.005126953,-0.016052246000000003,91.70229,36.961834,53.732826,6
0.1104126,0.0008544922000000001,-0.012390136999999999,65.061066,30.717558,62.893130000000006,6
0.11541748,0.015808105,-0.020446777,64.34351,21.305344,62.450382,6
0.11505127,0.009033203,-0.008117675999999999,48.206109999999995,11.916031,45.969467,6
0.10772705,0.0041503906,-0.008666992,27.57252,8.290076,39.984734,6
0.11254883,-0.0071411133,-0.0033569335999999996,-29.282442,7.19084,16.931297,6
0.11584473,-0.0028076171999999997,-0.010864258,-23.419847,3.2824428,27.213741,6
0.11663818,-0.0005493164,-0.0073242188,13.183207000000001,1.8778626,22.236639999999998,6
0.12475586,-0.0030517578000000003,-0.0107421875,40.412212,-3.3740457999999998,18.320610000000002,6
0.11480713,-0.004211426,-0.015136719,60.549618,-6.8015265,12.061069,6
0.10699463,-0.010803223,-0.009643555,55.18320500000001,-8.251908,9.885496,6
0.107299805,-0.016906738,0.0020141601999999997,19.977098,-1.5648855,9.381680000000001,6
0.11212158,-0.0072631836,-0.006958008000000001,-16.366413,0.9389313,-6.9541984,6
0.107910156,-0.0107421875,-0.011169433999999999,16.503817,-2.832061,-7.2137402999999996,6
0.10699463,-0.016296387,-0.012390136999999999,21.496183,-3.5572519999999996,-4.473282299999999,6
0.11224365,-0.013977051,-0.00982666,6.9923663000000005,-3.3282442000000003,-1.7251908999999999,6
0.118652344,-0.013000488000000001,-0.006958008000000001,-5.633588,-5.1603055,-12.160305000000001,6
0.11175537,-0.018737793,-0.008544922,-16.221375,-9.931297,-18.435114000000002,6
0.11114502,-0.020324707,-0.006652831999999999,-31.961832,-9.0992365,-19.206106,6
0.10974121,-0.016418457,-0.007385254,-30.198473,-3.5114503,-18.61832,6
0.10821533,-0.017150878999999997,-0.0036010741999999997,-19.526718,-9.725191,-23.946566,6
0.10668945,-0.018798828,-0.008361816,-16.687023,-7.6946563999999995,-25.251910000000002,6
0.1083374,-0.015930176,-0.007751465,-14.053435,-3.5114503,-19.38168,6
0.11444092,-0.015014648,-0.008117675999999999,-18.076335999999998,-3.038168,-16.267176,6
0.11102295,-0.0107421875,-0.008422852,-27.80916,2.9160306,-16.305344,6
0.11547851599999999,-0.009277344,-0.010437011999999999,-30.152671999999995,8.282442999999999,-12.503817,6
0.11279297,-0.008300781,-0.010253906,-28.25191,12.305344,-8.022901,6
0.11444092,-0.006225586,-0.017700195,-29.57252,10.480916,-4.5038165999999995,6
0.11389160000000002,-0.0036621094,-0.015319824,-29.954199,13.458015,-3.7557251000000003,6
0.11688232400000001,0.00024414060000000002,-0.014770508,-34.251907,14.671756,-3.351145,6
0.11578369,0.0016479492000000002,-0.013977051,-27.564885999999998,18.12977,-2.0610688,6
0.11004639,-0.008300781,-0.015991211,-33.06107,17.832062,-3.6717557999999997,6
0.10998535,-0.009216309,-0.012084961000000002,-48.816795,20.022902,9.80916,6
0.10888672,0.0017700195,-0.01550293,-48.76336,18.702289999999998,3.8931297999999996,6
0.109436035,0.0003662109,-0.0119018555,-30.305344,11.908397,1.3587786,6
0.11450195,0.0009155273,-0.01361084,-32.664124,9.290076,4.4580154,6
0.11602783,0.003112793,-0.0067749023,-36.503820000000005,9.267176,2.6641220000000003,6
0.11743164,0.0031738281,-0.009643555,-42.099236,8.007633,2.6335877999999995,6
0.11450195,0.005065918,-0.008850098,-51.969467,8.885496,-0.6259541999999999,6
0.1149292,0.007019043000000001,-0.006164551,-54.16794,8.167939,1.3206106000000002,6
0.11370849599999999,0.0072631836,-0.006164551,-51.351147,8.091603,-3.206107,6
0.11505127,0.009887695,-0.007629394499999999,-49.687022999999996,6.7709923,-4.3129773,6
0.11932373,0.010986328,-0.006958008000000001,-38.664124,8.442748,-1.3358778999999998,6
0.11779785,0.010314941,-0.005859375,-31.801527,8.015267,-4.328244000000001,6
0.11810303,0.011657715,-0.0053710938,-23.335878,9.709924,-4.6183205,6
0.11859131,0.0099487305,-0.005737304699999999,-19.908398000000002,10.251908,-6.7709923,6
0.119262695,0.010559082,-0.0045166016,-15.9007635,9.793892999999999,-4.8320612999999994,6
0.11840819999999999,0.009643555,-0.0034179688000000002,-11.885496,10.045800999999999,-10.251908,6
0.11791992,0.010375977,-0.00579834,-4.3587785000000006,10.282442999999999,-16.625954,6
0.12084961,0.008850098,-0.0021972656,-4.557252,8.442748,-20.183207,6
0.117370605,0.006652831999999999,0.003112793,-5.7557254,7.4961834000000005,-21.404581,6
0.1194458,0.005981445300000001,0.0041503906,-2.29771,5.1984735,-26.08397,6
0.11920166,0.007080078,-0.0003662109,4.9923663000000005,6.8702292,-20.267176,6
0.11767578,0.0045776367,-0.0004882813,10.015267,9.564885,-20.190839999999998,6
0.115722656,0.0028076171999999997,0.0008544922000000001,4.2061067,8.496183,-15.954199,6
0.11877441400000001,0.009033203,0.014892578,0.89312977,11.748092,-4.885496,6
0.11462402,0.0075683593999999995,0.0034179688000000002,7.1221375,13.961832000000001,-1.7709924,6
0.11431885,0.0065307617,0.002380371,16.290077,15.694656,2.1908397999999996,6
0.11608887,0.0053100586,0.0030517578000000003,10.2595415,14.122137,3.870229,6
0.1149292,0.007629394499999999,0.003112793,2.4580152,9.251908,5.4274807,6
0.11413574,0.0079956055,0.006652831999999999,0.41984734,9.061069,8.725191,6
0.11694336,0.0073242188,0.004638672,2.2290077,8.503817,10.114504,6
0.11791992,0.008178711,0.005981445300000001,4.4503818,7.740458,8.847328,6
0.11950683599999999,0.007629394499999999,0.0051879883,3.4427480000000004,7.0229006,8.236641,6
0.12487793,0.010681152,0.004638672,-2.9541984,8.343511999999999,6.740458,6
0.115722656,0.00970459,0.013244628999999999,-5.7328243,6.3587785000000006,3.961832,6
0.11791992,0.0064697266000000005,0.01159668,-2.946565,6.8320612999999994,0.90839696,6
0.11749267599999999,0.007446289,0.013793945,0.89312977,7.908396700000001,-3.8396947,6
0.11657715,0.005859375,0.01361084,1.221374,4.625954,-3.5038167999999996,6
0.11706543,0.006164551,0.015136719,3.3893129999999996,5.1297708,-5.2061067,6
0.11730957,0.005676269499999999,0.014831543,4.557252,5.4503818,-6.2824425999999995,6
0.117126465,0.0045776367,0.014465332,7.89313,7.5267177,-7.0458016,6
0.117126465,0.005004883,0.013061523,8.374044999999999,5.9694657,-5.8778625,6
0.115234375,0.004638672,0.009765625,8.2213745,7.6870227,-7.0229006,6
0.11798096,0.004272461,0.01361084,6.1297708,7.3053436000000005,-10.679389,6
0.117370605,0.0040893555,0.011352538999999998,7.6412214999999994,7.7709923,-8.526717,6
0.11950683599999999,0.0026855469,0.012878418,10.198473,5.740458,-8.931297,6
0.11810303,0.0026855469,0.013427733999999998,7.6488547,3.7328242999999994,-8.748092,6
0.121154785,0.004272461,0.0134887695,8.458015,2.5877862,-13.9007635,6
0.11993408,0.005493164,0.009033203,8.755725,2.1755726,-15.862596,6
0.12060547,0.0045166016,0.011108398,9.404580000000001,0.6488550000000001,-14.022901000000001,6
0.12066650400000001,0.006042480500000001,0.0095825195,9.656488000000001,-2.5419848,-12.206107000000001,6
0.11694336,0.004028320300000001,0.0107421875,10.78626,0.45038167,-10.061069,6
0.11431885,0.005676269499999999,0.010009766,14.259541500000001,0.5954198,-6.778625999999999,6
0.11938476599999999,0.002380371,0.008056641,12.709924,2.5801528,-3.8167940000000002,6
0.11706543,0.0038452148,0.010986328,8.7404585,8.152672,-2.8854961,6
0.117004395,0.0065307617,0.010070800999999999,5.2442746,6.2061067,-1.2671756,6
0.11584473,0.007629394499999999,0.010070800999999999,5.923664,8.114504,-0.6793893,6
0.117370605,0.0064697266000000005,0.010375977,9.015267,11.328244,1.1450381,6
0.11730957,0.0053100586,0.016723633,4.8396945,10.923664,-2.2519082999999998,6
0.115722656,0.0068969727,0.018371582,2.2595419999999997,11.007633,-3.1221373,6
0.1171875,0.007385254,0.022521972999999997,4.190840000000001,9.2595415,-3.923664,6
0.11639404,0.010192871,0.022766112999999998,14.152672,3.8549618999999997,2.0839694,6
0.12023926,0.0053100586,0.016906738,15.61832,4.9541984,-7.8549619999999996,6
0.11871338,0.004211426,0.019165039,14.61832,3.2519082999999998,-15.870229,6
0.11950683599999999,0.001159668,0.018432617,8.969465,2.6183207000000004,-15.793892999999999,6
0.117370605,0.0013427734,0.01940918,6.816794,1.259542,-22.236639999999998,6
0.11956787,0.002746582,0.016479492,5.2977099999999995,1.6412214,-21.007633,6
0.11694336,0.0022583008,0.020568848,6.778625999999999,4.2748094000000005,-19.305344,6
0.11804199,0.0036621094,0.015136719,9.816792999999999,4.633588,-13.992367000000002,6
0.11694336,0.0037231445,0.018127441,8.770992,5.3129773,-12.435115,6
0.11608887,0.0028686523,0.019714355,8.595419999999999,5.335878,-12.78626,6
0.121276855,0.003967285,0.016418457,11.061069,4.412214,-7.099236500000001,6
0.11804199,0.0032348633000000003,0.018615723,9.770992,3.1603053,-7.152672,6
0.11773682,0.0044555664,0.018615723,6.908396700000001,2.9160306,-5.2977099999999995,6
0.11877441400000001,0.005859375,0.019836426,4.8778625,2.3282442000000003,-7.587786,6
0.12023926,0.00579834,0.017150878999999997,3.7862597,2.3664122000000005,-8.793892999999999,6
0.11932373,0.0064086914,0.018615723,4.8396945,0.061068702,-6.076336,6
0.12182617,0.006042480500000001,0.018554688,4.2519083,-0.022900764,-4.7251905999999995,6
0.117004395,0.0072021483999999995,0.019348145,4.1374044,1.7175573,-2.7251909,6
0.11553955,0.007019043000000001,0.017822266,4.5801525000000005,0.97709924,-5.145038,6
0.11798096,0.006958008000000001,0.014526367,4.984732599999999,2.816794,-4.0229006,6
0.117004395,0.0068969727,0.017578125,7.465648700000001,1.6564884999999998,-3.534351,6
0.119018555,0.00793457,0.018920898000000002,5.0610685,-0.78625953,-5.7862597000000004,6
0.1182251,0.0078125,0.018188476999999998,1.70229,1.038168,-5.946564700000001,6
0.11773682,0.008300781,0.017333984,1.4885496,0.20610687,-7.763358599999999,6
0.11773682,0.008605957,0.017700195,1.0229008,-1.8931297999999999,-8.404580000000001,6
0.11688232400000001,0.009094238000000001,0.016357422,2.5801528,-0.22137405,-8.129771,6
0.1182251,0.0078125,0.019958496000000003,2.2671757,-1.0229008,-9.0,6
0.11877441400000001,0.0067749023,0.018798828,0.53435117,0.5954198,-9.648855000000001,6
0.11761474599999999,0.007080078,0.016418457,-0.08396947,-1.5725191,-9.435115,6
0.117370605,0.0063476562,0.01953125,-0.38931298,-0.5496183000000001,-9.503817,6
0.117126465,0.007873535,0.019897461,-1.3129771000000001,2.053435,-6.6106872999999995,6
0.11846924,0.004760742,0.020019531,0.58778626,0.78625953,-6.480916000000001,6
0.12042236,0.0064697266000000005,0.017578125,-2.2824428,-1.480916,-6.2442746,6
0.11743164,0.0068969727,0.01953125,-1.4274809,1.3969465,-4.5725193,6
0.11773682,0.0071411133,0.019836426,-0.29007635,0.31297709999999995,-4.4885497,6
0.11633301,0.0072631836,0.01928711,-0.091603056,0.84732825,-4.221374,6
0.11761474599999999,0.0079956055,0.016174316,-1.6717557,0.43511450000000007,-2.167939,6
0.12066650400000001,0.0099487305,0.016479492,-1.6259542,0.6946565,-1.3053435,6
0.11932373,0.008850098,0.01940918,0.35877863,-0.57251906,-1.8320610000000002,6
0.118652344,0.008972168,0.017333984,-0.07633588,0.6259541999999999,-3.2366412,6
0.11816406,0.008911133,0.020080566,-0.5954198,2.3664122000000005,-1.8091604,6
0.11889648400000001,0.008361816,0.018188476999999998,-0.77099234,2.4885497,-2.1755726,6
0.11859131,0.0087890625,0.019104003999999997,-2.0076337,0.6870229,-1.9923664,6
0.11791992,0.008300781,0.016845703,-1.7786259999999998,-1.2748091000000001,-2.2366412,6
0.11676025400000001,0.008422852,0.01928711,-2.1908397999999996,1.2900764,-5.366412,6
0.11694336,0.008361816,0.021362305,-0.8778626,0.18320611,-4.343511599999999,6
0.11676025400000001,0.008300781,0.021240234,0.9541985000000001,2.4198472,-4.1755724,6
0.11828613,0.0079956055,0.019592285,-1.3206106000000002,0.053435113,-3.6793892,6
0.11730957,0.008422852,0.018249512,-1.3435115,0.53435117,-3.5038167999999996,6
0.11676025400000001,0.008178711,0.018859863,-2.0152671000000004,0.78625953,-4.114504,6
0.11633301,0.009460449000000001,0.017456055,0.21374045,1.2519083999999998,-3.0152671000000004,6
0.11773682,0.008056641,0.017944336,2.167939,2.9007633,-3.221374,6
0.12017822,0.0071411133,0.019042969,2.1603053,2.870229,1.1145038999999999,6
0.11755371,0.007446289,0.018676758,2.5648854,2.5038167999999996,-1.2061069,6
0.1194458,0.008117675999999999,0.018554688,1.0152671,2.8931298,-1.6259542,6
0.11871338,0.008300781,0.017822266,1.4122137,1.8702290000000001,-4.0458016,6
0.11682129,0.00793457,0.020629883,1.1297709999999999,2.778626,-3.5496182000000003,6
0.117370605,0.007751465,0.019836426,3.778626,1.5572518999999998,-1.0610687,6
0.11938476599999999,0.0079956055,0.02178955,1.8549619,2.8473282,-1.5267175,6
0.11798096,0.008605957,0.019592285,3.1221373,2.2519082999999998,1.3435115,6
0.1182251,0.008056641,0.018432617,2.6564887,3.5267177000000003,-2.29771,6
0.119262695,0.008483886999999999,0.01776123,5.0610685,3.0,-2.3053436,6
0.11981201,0.008605957,0.016479492,6.3893127,0.45038167,-7.29771,6
0.11938476599999999,0.007629394499999999,0.01965332,3.5038167999999996,-0.259542,-7.5648856,6
0.11895752,0.0065307617,0.019958496000000003,4.1984735,-0.259542,-9.893129,6
0.11981201,0.007629394499999999,0.016845703,0.27480915,1.6183206,-10.0,6
0.11883545,0.0075683593999999995,0.01928711,2.2671757,1.1755725000000001,-8.839694999999999,6
0.11883545,0.0061035156000000005,0.024719237999999998,1.9312977,-1.1068702,-10.977099,6
0.11663818,0.005981445300000001,0.022521972999999997,4.053435299999999,1.6946564999999998,-7.2442746,6
0.11730957,0.007080078,0.024047852,3.29771,-0.5801527,-9.755725,6
0.117248535,0.008300781,0.020324707,5.847328,0.9236641,-6.3206105,6
0.11590576,0.005981445300000001,0.0234375,3.4961832000000004,1.7862595000000001,-8.572519,6
0.11779785,0.007385254,0.022644043,4.8244276,1.091603,-4.7709923,6
0.11749267599999999,0.0065307617,0.0234375,6.366412,2.1755726,-7.5114503,6
0.119018555,0.0053100586,0.02331543,4.0458016,3.40458,-5.740458,6
0.11767578,0.005432129,0.022277832,-0.07633588,0.10687023,-3.870229,6
0.11767578,0.0053710938,0.022338867000000002,-0.46564886,1.9312977,-5.2671757,6
0.11907959,0.0051879883,0.024536132999999998,-0.13740458,4.3587785000000006,-2.8244274,6
0.11883545,0.0056152343999999995,0.022216797000000003,3.0839694,3.5190839999999994,-2.3587787000000002,6
0.11846924,0.006225586,0.017944336,1.4045801000000002,2.1374047000000003,-1.6641221000000002,6
0.11828613,0.0067749023,0.0211792,1.8778626,1.3816794,-3.6641220000000003,6
0.11791992,0.005554199,0.018676758,2.0687022,0.6335878,-5.7175574000000005,6
0.11883545,0.0053100586,0.019348145,2.4961832000000004,-0.6335878,-1.4045801000000002,6
0.12121582,0.0071411133,0.01751709,2.1526718,0.46564886,-1.5419847,6
0.12200928,0.006652831999999999,0.014953613000000001,1.480916,0.022900764,-2.091603,6
0.11657715,0.0067749023,0.018737793,-0.39694658,-3.946565,-1.8931297999999999,6
0.11694336,0.009338379,0.018920898000000002,3.4580152,-2.5267177000000003,-3.3664122000000005,6
0.11669922,0.007385254,0.019165039,3.1603053,-3.076336,-2.3664122000000005,6
0.12084961,0.008422852,0.01965332,3.70229,-2.0458016,-1.2748091000000001,6
0.11932373,0.008422852,0.020324707,2.2671757,-2.6717557999999997,-1.4503816,6
0.11889648400000001,0.007446289,0.01739502,5.603053599999999,-2.2442749,-0.5954198,6
0.1182251,0.008117675999999999,0.01940918,3.6946564,-3.129771,-3.961832,6
0.11785889,0.007507324,0.018310547,3.0229008,-2.7709923,-5.1755724,6
0.11907959,0.0064697266000000005,0.01977539,2.5877862,-0.4274809,-7.396946400000001,6
0.11767578,0.0061035156000000005,0.020996094,3.6641220000000003,-3.3053436,-9.412213000000001,6
0.11859131,0.0053710938,0.018798828,3.053435,-3.076336,-8.984733,6
0.11694336,0.0056152343999999995,0.02166748,3.9312977999999994,-1.7862595000000001,-9.320611,6
0.11651611,0.0061035156000000005,0.019165039,3.9160306000000005,-0.9236641,-10.053435,6
0.117248535,0.0053100586,0.018981934,5.7251905999999995,-1.6412214,-8.381680000000001,6
0.11981201,0.0063476562,0.01739502,5.1679387000000006,1.7709924,-7.068702,6
0.117004395,0.004638672,0.0178833,4.7862597000000004,0.5114504,-9.816792999999999,6
0.11877441400000001,0.005737304699999999,0.017700195,5.068702,0.007633588,-6.6870227,6
0.12176514,0.0068969727,0.022399902000000003,5.7099237,2.206107,-6.923664,6
0.11883545,0.0028076171999999997,0.016967773000000002,4.778626,1.1526718,-8.160305000000001,6
0.11907959,0.0044555664,0.016845703,3.5725190000000002,-1.0534351,-8.335877,6
0.11938476599999999,0.0037841796999999997,0.016906738,2.519084,-0.19847329,-8.106871,6
0.12017822,0.001953125,0.01751709,-0.007633588,0.6870229,-9.068703,6
0.117126465,0.0032958984000000004,0.016662598,-0.90839696,-0.97709924,-7.9923663000000005,6
0.11791992,0.0021362305,0.014465332,-0.38931298,0.16793893,-8.442748,6
0.11834717,0.0022583008,0.016906738,-1.1755725000000001,-1.648855,-6.816794,6
0.11730957,0.0016479492000000002,0.013549805,-3.5190839999999994,-1.0458015,-3.4198472,6
0.12109375,0.003540039,0.0146484375,-4.740458,-0.2519084,-2.2442749,6
0.11596680000000001,0.0048217773,0.013977051,-3.0610687999999997,-0.41221374,1.1603054,6
0.11840819999999999,0.0036010741999999997,0.01727295,-3.9160306000000005,-1.3816794,-1.8396946,6
0.11651611,0.0065307617,0.018981934,-4.984732599999999,-0.030534351,-0.73282444,6
0.11804199,0.0048217773,0.018249512,-4.068702,1.4732825,1.7557251,6
0.11840819999999999,0.0043945312,0.016845703,-4.7862597000000004,1.3129771000000001,1.3587786,6
0.117248535,0.004272461,0.01928711,-5.961832,-0.21374045,-0.8167939000000001,6
0.119018555,0.0051879883,0.01739502,-7.152672,-0.5038168,-0.5954198,6
0.11688232400000001,0.00579834,0.019104003999999997,-5.6793895,-1.480916,-3.5190839999999994,6
0.11773682,0.008422852,0.014892578,-7.137404400000001,-0.78625953,-4.145038,6
0.11755371,0.004760742,0.018554688,-6.839694500000001,1.5419847,-6.1374044,6
0.11889648400000001,0.0065307617,0.015563965,-7.9847326,2.0610688,-3.8167940000000002,6
0.11682129,0.0049438477,0.018005371000000003,-9.389313000000001,-0.53435117,-4.7557254,6
0.115234375,0.0048828125,0.020751953,-9.450381,1.1908396,-7.412214,6
0.11730957,0.008056641,0.018798828,-5.068702,-0.8244275,-4.923664,6
0.11657715,0.005004883,0.01751709,-6.6946563999999995,1.2366412,-7.3206105,6
0.11730957,0.004760742,0.019348145,-4.885496,1.2290076,-4.8702292,6
0.12023926,0.0063476562,0.016235351999999998,-4.8320612999999994,3.5419848,-7.0839696,6
0.11730957,0.0045776367,0.019165039,-6.412214,1.6717557,-7.6870227,6
0.11871338,0.0067749023,0.018920898000000002,-7.4351144,0.43511450000000007,-9.465649,6
0.11560058599999999,0.0045776367,0.01776123,-7.114503999999999,2.0076337,-5.809159999999999,6
0.11791992,0.0064697266000000005,0.020324707,-3.6717557999999997,1.7404580000000003,-7.335878,6
0.11999512,0.004211426,0.01763916,-2.793893,2.687023,-6.9770994,6
0.117370605,0.0052490233999999995,0.019592285,-2.7251909,2.832061,-7.5648856,6
0.119140625,0.006286621,0.018432617,-1.9083970000000001,0.34351146,-7.076336,6
0.11761474599999999,0.0056152343999999995,0.019165039,0.53435117,2.9541984,-5.114504,6
0.11895752,0.0067749023,0.018737793,-0.8702290000000001,0.061068702,-5.8778625,6
0.11834717,0.0065307617,0.020141601999999998,0.8702290000000001,1.8015267,-7.2290077,6
0.11730957,0.005859375,0.01751709,0.122137405,1.7938931,-5.557252,6
0.11730957,0.0045166016,0.01776123,-0.43511450000000007,0.55725193,-4.1679387000000006,6
0.11828613,0.0049438477,0.020080566,1.2137405,1.0229008,-5.3129773,6
0.11755371,0.0045166016,0.018310547,-0.03816794,1.7938931,-7.4198475,6
0.11791992,0.005859375,0.021606445,4.763358599999999,1.1450381,-4.412214,6
0.11602783,0.006164551,0.019958496000000003,4.236641400000001,3.2900763,-5.3511453,6
0.11956787,0.0064086914,0.020080566,6.10687,5.0229006,-1.0687023,6
0.12005615,0.007080078,0.018798828,6.80916,5.885496,-0.90839696,6
0.12005615,0.0051879883,0.020874023000000002,8.030535,5.236641400000001,-1.3740458,6
0.12121582,0.0087890625,0.017578125,8.687023,2.870229,-1.5801526000000001,6
0.1270752,0.009643555,-0.007507324,5.7480917,5.221374,2.6030533,6
0.11883545,0.006225586,0.016174316,10.206107000000001,2.8473282,-5.2137402999999996,6
0.11761474599999999,0.006713866999999999,0.015014648,8.465649,-0.06870229,-4.7099237,6
0.11828613,0.005676269499999999,0.021362305,9.206107000000001,1.6030535,-5.2061067,6
0.11633301,0.004760742,0.016601562,6.6870227,0.7557252,-5.2290077,6
0.11755371,0.0041503906,0.019714355,5.183206,-2.5038167999999996,-7.885496000000001,6
0.11804199,0.004760742,0.017211914,7.4732823,-0.78625953,-6.366412,6
0.11785889,0.0048828125,0.019348145,10.389313000000001,-2.3587787000000002,-6.442748,6
0.11853027,0.0037841796999999997,0.017822266,8.114504,-0.7633588000000001,-5.335878,6
0.11987305,0.005493164,0.014099121000000001,8.519084,-1.8778626,-3.0458016,6
0.11767578,0.007019043000000001,0.020446777,11.167939,-1.3129771000000001,-5.9923663000000005,6
0.11798096,0.004028320300000001,0.021240234,8.885496,-2.1755726,-4.2671757,6
0.117370605,0.005004883,0.022094727,10.2595415,-0.5954198,-6.8549619999999996,6
0.11743164,0.005676269499999999,0.016723633,10.412213000000001,-1.7480916000000002,-4.190840000000001,6
0.11682129,0.0044555664,0.020080566,10.870229,-1.0152671,-5.7175574000000005,6
0.11840819999999999,0.005004883,0.01953125,6.671755999999999,-1.7404580000000003,-6.4274807,6
0.117126465,0.0036010741999999997,0.021728516,7.2671757,-0.19083970000000003,-8.282442999999999,6
0.11907959,0.005065918,0.01928711,5.152672,-1.9465648999999998,-7.0152674,6
0.12078857400000001,0.0071411133,0.021118164,4.847328,-2.4503817999999997,-8.343511999999999,6
0.11932373,0.004272461,0.018920898000000002,4.068702,-0.20610687,-10.923664,6
0.12097168,0.002380371,0.020385742,2.6335877999999995,-1.5343511,-10.824428,6
0.11804199,0.0012207030999999999,0.018127441,4.152672,-0.9236641,-10.450381,6
0.11767578,0.004333496,0.018737793,3.6946564,-0.47328246,-11.557252,6
0.11816406,0.001953125,0.01928711,4.6793895,-0.022900764,-9.534351,6
0.11676025400000001,0.0041503906,0.020141601999999998,3.5114503,0.18320611,-10.030535,6
0.117126465,0.0032348633000000003,0.019592285,2.4961832000000004,0.97709924,-8.122137,6
0.117370605,0.0048217773,0.017700195,2.2519082999999998,0.6183206,-5.015267400000001,6
0.11773682,0.0041503906,0.012756348,1.6183206,3.1145039,-1.6641221000000002,6
0.11932373,0.005676269499999999,0.0178833,2.6793892,-0.99236643,-3.7862597,6
0.12097168,0.0044555664,0.017944336,1.5877863,-0.77099234,-4.343511599999999,6
0.12023926,0.0053100586,0.018127441,-0.5954198,-2.6183207000000004,-4.1297708,6
0.119140625,0.006958008000000001,0.01776123,0.3053435,-2.206107,-2.9541984,6
0.11779785,0.005737304699999999,0.018371582,-0.26717559,-2.5038167999999996,-4.6106873,6
0.11767578,0.0052490233999999995,0.015625,1.7251908999999999,-3.0992367,-0.79389316,6
0.11663818,0.0071411133,0.018066406,-1.2748091000000001,-0.16030534,-2.2900763,6
0.11853027,0.0064086914,0.016296387,-2.9770992,-2.2519082999999998,-2.3511450000000003,6
0.11907959,0.0068969727,0.01574707,-1.9312977,-0.7480916,-4.908396700000001,6
0.11749267599999999,0.008544922,0.017211914,-5.2442746,-2.793893,-3.9847328999999996,6
0.119628906,0.005432129,0.013916016000000002,-4.366412,-5.1297708,-6.1603055,6
0.11834717,0.0071411133,0.018310547,-2.5114503,-2.465649,-7.076336,6
0.11846924,0.005004883,0.016113281,0.36641222,-2.076336,-7.1221375,6
0.11566162,0.00579834,0.015136719,-1.5572518999999998,-4.114504,-7.3129773,6
0.11462402,0.0053100586,0.016540527,-2.4198472,-2.5648854,-9.694656,6
0.11633301,0.005981445300000001,0.014587402,-5.1374044,-2.4961832000000004,-10.595419999999999,6
0.11755371,0.006286621,0.018188476999999998,-4.4351144,-1.1221374,-9.725191,6
0.12084961,0.005493164,0.020874023000000002,-2.3511450000000003,-1.389313,-9.129771,6
0.11767578,0.0075683593999999995,0.020629883,2.312977,-0.17557251,-3.7480917000000002,6
0.11749267599999999,0.0068359375,0.015686035,7.656488400000001,3.2519082999999998,-2.5496182000000003,6
0.113342285,0.006713866999999999,0.018188476999999998,6.6183205,2.9847328999999996,-0.8854962,6
0.11169433599999999,0.007019043000000001,0.015136719,2.9770992,4.923664,0.053435113,6
0.11328125,0.0071411133,0.016967773000000002,0.22900763,4.6870227,1.2442749,6
0.11828613,0.010192871,0.015014648,0.3740458,1.9160305,1.1450381,6
0.11596680000000001,0.00793457,0.019104003999999997,0.58778626,3.29771,-1.5801526000000001,6
0.119140625,0.00970459,0.017028809,-0.36641222,2.908397,-2.2137403,6
0.11834717,0.008056641,0.018188476999999998,0.8854962,1.3816794,-5.10687,6
0.12158203,0.008361816,0.018310547,2.8091602000000004,2.8625952999999997,-9.832061,6
0.124816895,0.0075683593999999995,0.014831543,5.091603299999999,5.5038165999999995,-10.564885,6
0.11932373,0.0078125,0.018310547,8.045800999999999,2.816794,-15.106871,6
0.11999512,0.005554199,0.012939453,13.21374,3.4427480000000004,-17.862595000000002,6
0.11956787,-0.002380371,0.012268066000000001,17.038168,1.7633588,-16.862595000000002,6
0.121032715,0.0025024414000000004,0.011047363000000001,11.160305000000001,-4.0,-19.961832,6
0.12341308599999999,0.0014038085999999999,0.0015869141,-1.8091604,-13.366412,-25.10687,6
0.12420654,0.008850098,0.0034790040000000004,-20.312977,-17.679389999999998,-21.633587,6
0.12207031,0.0075683593999999995,0.005676269499999999,-7.259542,-23.274809,-14.885496,6
0.11859131,0.004638672,0.007629394499999999,-0.55725193,-23.10687,-14.114504,6
0.12762451,0.009521484,-0.019104003999999997,-2.0076337,-22.969465,-1.3358778999999998,6
0.11553955,0.009765625,0.0036621094,7.656488400000001,-28.854961,1.1755725000000001,6
0.113342285,0.007080078,0.004272461,11.19084,-35.374046,5.183206,6
0.11407471,0.008483886999999999,0.00970459,3.2366412,-28.541984999999997,7.030534299999999,6
0.12176514,0.0075683593999999995,0.004699707,-1.1526718,-20.91603,7.6106872999999995,6
0.12561035,0.012634277,0.005432129,1.1908396,-15.671756,6.59542,6
0.12158203,0.008483886999999999,0.010681152,5.2290077,-21.351145000000002,11.755725,6
0.1161499,0.014343261999999999,0.00793457,9.931297,-16.595419,14.885496,6
0.11059569999999999,0.013000488000000001,-0.0004882813,18.190839999999998,-9.938931,9.9007635,6
0.11798096,0.01953125,-0.0021362305,11.755725,-17.740458,8.641221,6
0.11975098,0.0138549805,-6.1035155999999994e-05,20.877863,-31.793894,1.1374046,6
0.11968994,0.010437011999999999,-0.008728027,16.06107,-35.419846,-6.10687,6
0.12384033,0.020446777,-0.0073242188,8.816792999999999,-48.541985,-13.328244,6
0.11627197,0.009460449000000001,-0.010437011999999999,6.145038,-56.076336,-4.908396700000001,6
0.10498047,-0.009277344,-0.014343261999999999,-24.755726,-42.503820000000005,-0.114503816,6
0.10107422,0.005126953,-0.02734375,-37.83206,-17.068703,-0.045801528,6
0.10388183599999999,-0.005737304699999999,-0.020507812,-48.297709999999995,-13.687023000000002,-5.656488400000001,6
0.09643555,0.01184082,-0.018920898000000002,-59.809162,-11.832061,-4.9694657,6
0.111450195,0.024108887000000002,-0.032470703,38.396946,-6.7862597000000004,-6.374046,6
0.11193848,-0.018859863,-0.007446289,47.946564,-6.80916,-9.694656,6
0.11010742,-0.012023926,-0.021972656,6.076336,0.32824427,-18.0,6
0.11315918,-0.00592041,-0.007751465,23.10687,-6.923664,-1.6259542,6
0.109375,-0.024902344,-0.0015869141,-46.129771999999996,5.656488400000001,-13.549619,6
0.111816406,0.016601562,-0.0012207030999999999,-5.5496182,6.053435299999999,14.534351000000001,6
0.11645508,0.017150878999999997,-0.015258788999999998,200.29771000000002,-18.396946,-1.0534351,6
0.11169433599999999,-0.025695799999999998,-0.007751465,169.67938,-16.122137,3.0839694,6
0.11639404,-0.007019043000000001,-0.0119018555,38.221375,1.8625953999999998,-10.78626,6
0.1182251,-0.0053100586,-0.01739502,32.0229,5.7862597000000004,-26.74809,6
0.10748291,-0.010192871,-0.023620605,29.908398,-0.48091602,-24.114504,6
0.10443115,-0.008300781,-0.020874023000000002,15.770992000000001,-0.38167940000000006,-19.0,6
0.11010742,-0.0014648438,-0.010925293,-27.519083000000002,5.0229006,-28.610687,6
0.11016846,-0.017944336,-0.026550293,-44.671757,1.4732825,-34.053436,6
0.1171875,0.013427733999999998,-0.025756836,-49.656490000000005,-4.557252,-32.17557,6
0.10534668,0.03491211,-0.026672362999999998,-18.099237,-4.587786,-34.15267,6
0.10876465,0.012512207,-0.015686035,-4.961832,2.221374,-33.625954,6
0.10357666,0.01928711,-0.018554688,-5.7328243,9.145039,-23.496183,6
0.10827637,0.016296387,-0.026184082,14.396947,5.0458016,-20.519083,6
0.10467529,0.012939453,-0.023620605,14.251907999999998,2.7862597,-8.748092,6
0.110839844,0.015136719,-0.019165039,5.1297708,12.938931,-7.9389315,6
0.11785889,-0.0016479492000000002,-0.010192871,-11.404580000000001,7.030534299999999,-20.213741,6
0.11602783,0.00793457,-0.024658202999999997,-32.10687,3.3206108,1.7862595000000001,6
0.11364746,0.008422852,-0.020324707,-11.389313000000001,-2.2137403,-11.145039,6
0.111816406,0.013671875,-0.032287598,-12.335877,-8.251908,-5.5801525000000005,6
0.11096191400000001,0.017578125,-0.02545166,3.0839694,-5.1297708,-15.671756,6
0.109191895,0.010803223,-0.024536132999999998,0.46564886,-9.587786999999999,-22.152672,6
0.11035156,0.020446777,-0.028137207,9.549619,-10.732824,-21.717558,6
0.10644531,0.014953613000000001,-0.026977539,23.213741,-13.580152499999999,-17.160304999999997,6
0.11553955,0.013671875,-0.021118164,2.4885497,-7.206106699999999,-24.458015,6
0.11853027,0.022033691,-0.014343261999999999,3.7557251000000003,-9.450381,-24.740458,6
0.12084961,0.013977051,-0.015930176,-8.625955000000001,-1.9770991999999998,-15.389313000000001,6
0.10894775400000001,0.009216309,-0.026123047000000003,-23.534351,-9.435115,-13.946565,6
0.11273193,0.01977539,-0.003112793,13.473282999999999,-5.076336,-18.12977,6
0.1071167,0.0048217773,-0.007873535,-7.091603299999999,-1.1068702,-19.091601999999998,6
0.10290527,0.01373291,-0.009643555,-46.274809999999995,3.8396947,-31.145039,6
0.11059569999999999,0.03704834,-0.00592041,-33.274809999999995,7.9465647,-23.57252,6
0.105407715,0.019104003999999997,-0.012023926,10.473283,5.9923663000000005,-20.923664000000002,6
0.113342285,0.02130127,-0.015319824,6.9923663000000005,7.137404400000001,-11.709924,6
0.11090088,0.024230957,-0.015686035,1.6412214,9.297709,-13.160305,6
0.11090088,0.025390625,-0.019165039,-4.59542,9.274809,-20.076335999999998,6
0.11218262,0.02166748,-0.020690918,-6.839694500000001,5.480916000000001,-23.969465,6
0.11108398400000001,0.020324707,-0.017822266,-6.5496182,3.6564887,-18.679389999999998,6
0.10968017599999999,0.018371582,-0.01586914,-5.7022900000000005,2.70229,-19.908398000000002,6
0.11016846,0.022521972999999997,-0.014038086000000002,12.076336,1.5496184,-23.167938,6
0.11102295,0.015991211,-0.012634277,10.488549,-0.47328246,-14.129771,6
0.1104126,0.022033691,-0.01159668,16.656488,2.1450381000000003,-13.633588,6
0.11053467,0.020019531,-0.0126953125,19.694656,3.923664,-8.312977,6
0.10961914,0.026062012000000002,-0.016662598,25.549618,-1.2671756,-9.053435,6
0.10845947,0.020935059,-0.013183594,6.2900763,1.6412214,-8.938931,6
0.103393555,0.026428222999999997,-0.01751709,3.8473281999999998,2.053435,-4.557252,6
0.10961914,0.032714844,-0.018859863,10.21374,0.46564886,-7.0839696,6
0.10980224599999999,0.030273438,-0.017578125,-4.2900763,-1.5038168,-10.015267,6
0.10601807,0.031311035,-0.022216797000000003,-7.29771,-4.114504,-8.633588,6
0.11022949,0.03326416,-0.024291992000000002,-16.282442,-5.9770994,-8.78626,6
0.11267089999999998,0.038330078,-0.025512695,-23.48855,-8.343511999999999,-10.2595415,6
0.10998535,0.040527344,-0.029907227,-32.458015,-11.229008,-22.809160000000002,6
0.10430908,0.034606934,-0.020019531,-40.755726,-10.931297,-44.15267,6
0.09234619,0.03491211,-0.0063476562,-34.10687,-7.4961834000000005,-24.984734,6
0.09698486,0.040161132999999995,-0.03265381,-70.12214,-4.984732599999999,-27.984734000000003,6
0.093566895,0.038757323999999996,-0.02532959,-54.061069999999994,-8.549619,-24.114504,6
0.095214844,0.039367676000000004,-0.017822266,-63.59542,-9.122137,-16.274809,6
0.09661865,0.050964355,-0.01953125,-73.08397,-6.1755724,-14.21374,6
0.10284424,0.04443359400000001,-0.023132324,-88.01527,-2.2290077,-19.664122,6
0.09716797,0.048095703,-0.009765625,-117.78626000000001,10.045800999999999,-15.305344,6
0.107299805,0.055541992000000005,-0.03161621,-133.09923999999998,8.0,-21.053434,6
0.10626221,0.07482910000000001,-0.0079956055,-136.7939,14.687023000000002,-41.770992,6
0.10607910000000002,0.07623291,-0.0020751953,-109.9313,7.8702292,-31.541984999999997,6
0.10223389,0.083496094,-0.0040893555,-74.37405,17.198473,-41.984734,6
0.099731445,0.06744385,-0.011108398,-63.49618,20.954199,-54.572517000000005,6
0.10290527,0.05871582,-0.005493164,-98.83969,11.923664,-54.62595400000001,6
0.101623535,0.07495117,-0.004211426,-88.94655999999999,6.9389315,-47.671757,6
0.093688965,0.0715332,0.007385254,-29.282442,5.6946564,-34.908398,6
0.09716797,0.07324219,0.010437011999999999,-8.435115,3.8549618999999997,-44.648853,6
0.09710693,0.07867432,0.020385742,-16.412214000000002,5.633588,-36.297709999999995,6
0.09118652,0.07733154,0.010253906,-32.15267,13.717557000000001,-54.389313,6
0.08172607400000001,0.06951904,0.013549805,-55.59542,21.625954,-44.51145,6
0.08862305,0.08923339999999999,0.018737793,-56.541985,25.847328,-34.015266,6
0.08941650400000001,0.08392334,0.023498535,-33.0,22.175573,-28.694656,6
0.08227539,0.08538818,0.030761719,-26.87023,36.969467,-28.244274,6
0.07983398400000001,0.09106445,0.032043457000000004,-16.450382,46.12214,-19.053434,6
0.084472656,0.10083008,0.036071777,37.725190000000005,32.595420000000004,-15.343511999999999,6
0.08062744,0.088012695,0.053466797,53.198475,35.206109999999995,-38.06107,6
0.08044433599999999,0.09063721,0.06103515599999999,19.351145000000002,51.23664,-35.755726,6
0.07446289,0.086120605,0.06237793,-3.3969467000000004,62.15266999999999,-43.44275,6
0.06915283,0.08813476599999999,0.06384277,-33.450382,81.58778000000001,-54.67175699999999,6
0.06567383,0.10052489999999999,0.06726074,-22.389313,87.503815,-23.534351,6
0.060302734000000004,0.099731445,0.07086182,-1.038168,98.89313,-25.664122,6
0.06225586,0.10760498,0.07299805,57.297709999999995,102.94655999999999,-8.282442999999999,6
0.07110596,0.08624267599999999,0.056518555,126.137405,100.01527,-1.7557251,6
0.05895996,0.07409668,0.06591797,117.29008,91.91603,-4.603053599999999,6
0.06365967,0.08557129,0.06524658,92.381676,95.40458000000001,9.305344,6
0.06610107400000001,0.09216308599999999,0.061279297,92.0458,99.39695,-10.206107000000001,6
0.06555176,0.08795166,0.06463623,82.80915999999999,97.34351,-0.35877863,6
0.07000732400000001,0.09429932,0.050354004,73.74045600000001,89.19847,-2.4351146,6
0.059204099999999996,0.09655762,0.048828125,138.50381000000002,70.67939,14.679389000000002,6
0.066345215,0.09643555,0.054626465,155.7481,58.732826,3.7099237,6
0.059326172,0.08648682,0.05230713,154.56488000000002,58.129771999999996,16.366413,6
0.06744385,0.085998535,0.049072265999999996,99.0,64.74809,-5.068702,6
0.06756592,0.095581055,0.04034424,62.87786,67.16794,-5.1374044,6
0.07458496,0.10662842,0.03186035,81.54961999999999,57.198475,-2.8625952999999997,6
0.07000732400000001,0.10388183599999999,0.03265381,118.175575,47.160305,-4.603053599999999,6
0.06451416,0.09118652,0.026184082,120.9313,41.290077000000004,-9.923664,6
0.066467285,0.08251953,0.020019531,58.351147,46.702290000000005,-16.244274,6
0.07000732400000001,0.09240723,0.013122558999999999,47.946564,45.08397,-1.8167938999999997,6
0.061828613,0.07470703,0.012817383,42.045803,40.580154,-6.7557254,6
-0.19409179999999998,-0.1461792,-0.018554688,-44.099236,-10.770992,-19.564885999999998,6
-0.20690918,-0.11450195,-0.035705566,-125.51908,-35.93893,-15.145039,6
-0.22314453,-0.08441162,-0.06286621,-150.45038,-49.290077000000004,-12.488549,6
-0.22509766,-0.059631348,-0.076660156,-125.19084,-30.465649,-4.221374,6
-0.21856689999999998,-0.07653808599999999,-0.05065918,-51.755726,-11.961832000000001,-3.0458016,6
-0.21984863,-0.10858154,-0.03845215,-22.351145000000002,-11.580152499999999,-6.473282299999999,6
-0.22344970000000003,-0.12634277,-0.032714844,-38.984734,-19.51145,-18.229008,6
-0.22332764,-0.119140625,-0.023071289,-65.099236,-20.679389999999998,-28.633587,6
-0.21636963,-0.10040283,-0.0345459,-70.46565,-20.374046,-38.580154,6
-0.22705078,-0.09301758,-0.03125,-56.709922999999996,-20.328245000000003,-43.9771,6
-0.23516846,-0.09698486,-0.03881836,-44.458015,-17.229008,-47.603054,6
-0.23199463,-0.085998535,-0.04510498,-44.900764,-12.496183,-47.664124,6
-0.23101807,-0.07287598,-0.050109863,-37.664124,-9.862596,-44.381679999999996,6
-0.23199463,-0.07104492,-0.055786132999999995,-33.328243,-6.2748094000000005,-40.16794,6
-0.22436523,-0.06536865,-0.055847167999999996,-35.793890000000005,-4.4351144,-34.51145,6
-0.21435547,-0.05694580000000001,-0.06921387,-30.969465000000003,-4.671755999999999,-24.778625,6
-0.21618652,-0.05657959,-0.06011963,-14.015267000000001,-1.3816794,-16.839695000000003,6
-0.2232666,-0.070373535,-0.050231934000000006,6.5801525,0.15267175,-7.8015265,6
-0.21539307,-0.07971191400000001,-0.04833984400000001,14.412213000000001,1.5419847,0.9236641,6
-0.21307373,-0.087768555,-0.041503906,7.396946400000001,0.38167940000000006,8.160305000000001,6
-0.22033691,-0.095825195,-0.046142578,14.091603,-1.8549619,12.946565,6
-0.21472168,-0.10607910000000002,-0.04498291,23.412214000000002,-0.4427481,14.977098999999999,6
-0.21197510000000003,-0.11260986,-0.03704834,20.465649,0.73282444,17.832062,6
-0.20855713,-0.11242676,-0.041259766,10.152672,-6.519083999999999,19.12977,6
-0.21392822,-0.12536621,-0.04925537,1.3435115,-9.137404,16.122137,6
-0.20996094,-0.12084961,-0.042663574,-1.1908396,-9.137404,13.091603,6
-0.20788574,-0.121032715,-0.050231934000000006,-4.442748,-8.885496,7.839694500000001,6
-0.21710205,-0.11297607400000001,-0.050109863,1.9236640999999999,-10.244275,3.8854961,6
-0.21209717,-0.12011719,-0.050964355,12.022901,-4.9007635,1.8396946,6
-0.21166992,-0.12371826,-0.048706055,6.89313,2.8473282,0.27480915,6
-0.20428467,-0.11883545,-0.040527344,-25.954199,-4.671755999999999,-3.5877862,6
-0.21746826,-0.10052489999999999,-0.051391599999999996,-21.198473,-11.290076,-4.5343513,6
-0.22845459,-0.104003906,-0.05090332,-8.763359,-6.5801525,-3.4732822999999997,6
-0.22454834,-0.10620117,-0.06463623,-9.648855000000001,2.465649,-0.10687023,6
-0.22363281,-0.09503174,-0.060913086,-14.244275,-0.8778626,-1.7709924,6
-0.222229,-0.09674072,-0.06188965,-11.824428,-4.8320612999999994,-3.3969467000000004,6
-0.22564697,-0.08868408,-0.059509277,-6.908396700000001,3.2748091,-2.183206,6
-0.22705078,-0.085754395,-0.05596924,-5.2137402999999996,4.519083999999999,-0.43511450000000007,6
-0.21868896,-0.091796875,-0.05328369,0.114503816,3.3664122000000005,2.2519082999999998,6
-0.21459961,-0.09350586,-0.056518555,9.2595415,5.6183205,2.8931298,6
-0.21356201,-0.09271239999999999,-0.058898926,18.87023,7.900763499999999,1.9236640999999999,6
-0.20825195,-0.10394287,-0.057250977,21.61832,8.732824,3.70229,6
-0.21722412,-0.10595703,-0.05822754,16.335878,7.1297708,3.9389312000000007,6
-0.21691895,-0.10638428,-0.057678223,10.977099,7.6412214999999994,1.9312977,6
-0.21356201,-0.10516357400000001,-0.05908203,8.488549,8.595419999999999,2.2824428,6
-0.21289062,-0.10266113,-0.05834961,7.3893127000000005,7.2442746,2.6793892,6
-0.21258545,-0.10015869,-0.05847168,6.80916,8.328244,1.4580153,6
-0.21337889999999998,-0.099121094,-0.058654785,8.732824,8.587786999999999,2.3282442000000003,6
-0.21197510000000003,-0.099121094,-0.058044434000000006,11.656488000000001,7.89313,0.99236643,6
-0.21142578,-0.10003662,-0.058654785,13.465648999999999,8.763359,1.2748091000000001,6
-0.21252441,-0.10076904,-0.06011963,16.610687,8.9007635,3.534351,6
-0.21289062,-0.10394287,-0.06292724599999999,19.534351,10.389313000000001,1.7938931,6
-0.21063232,-0.10632324,-0.06213379,19.282442,10.671756,2.5267177000000003,6
-0.20703125,-0.10650635,-0.06292724599999999,18.923664000000002,9.916031,2.2137403,6
-0.20819092,-0.10571289,-0.062194824,18.450382,10.763359,1.1374046,6
-0.20947266,-0.10852051,-0.05859375,17.358778,8.206107000000001,0.5038168,6
-0.20568848,-0.10974121,-0.062072754,14.694656,7.3816795,1.5267175,6
-0.20935059,-0.10614014,-0.05718994,17.08397,7.8549619999999996,2.4198472,6
-0.20715332,-0.11126709,-0.057434082000000004,15.259541500000001,7.099236500000001,1.4427481000000002,6
-0.20971679999999995,-0.11389160000000002,-0.060913086,11.320611,6.6793895,0.129771,6
-0.20892334,-0.11029053,-0.059204099999999996,7.923664,4.6106873,-0.43511450000000007,6
-0.21142578,-0.10607910000000002,-0.053771973,6.152672,3.7175572,0.030534351,6
-0.20587158,-0.10913086,-0.060546875,6.1221375,3.6183207000000004,-0.030534351,6
-0.20819092,-0.11151123,-0.05718994,3.2671757,3.4122138,-1.4045801000000002,6
-0.20465088,-0.11053467,-0.059204099999999996,2.8625952999999997,1.9389313000000001,-1.3129771000000001,6
-0.21398926,-0.11090088,-0.05871582,2.3053436,0.5114504,-1.6793894,6
-0.21063232,-0.11212158,-0.06335449,1.9312977,0.9465648999999999,-0.86259544,6
-0.21014404,-0.11059569999999999,-0.05847168,0.24427481,1.0458015,-0.86259544,6
-0.20562744,-0.11157226599999999,-0.056884765999999996,0.18320611,1.038168,-2.4351146,6
-0.20831299,-0.10961914,-0.05609131,0.099236645,1.2290076,-0.24427481,6
-0.21234131,-0.10467529,-0.05645752,-1.1068702,-0.19847329,-1.6564884999999998,6
-0.20880127,-0.11206055,-0.06414795,-1.7938931,-0.007633588,-2.2137403,6
-0.21331787,-0.109436035,-0.05267334,-3.9007633000000004,-2.0076337,-1.221374,6
-0.20855713,-0.111206055,-0.061645507999999995,-4.4198474999999995,-1.4732825,-1.0610687,6
-0.20672607,-0.10864258,-0.060424805,-5.931298,-3.3740457999999998,-1.3969465,6
-0.20440674,-0.10266113,-0.056762695,-4.671755999999999,-2.687023,-2.091603,6
-0.20867919999999998,-0.10394287,-0.06060791,-2.8473282,-0.36641222,-0.70229006,6
-0.21191406,-0.10406494,-0.054260254,-2.7404580000000003,-0.38931298,0.007633588,6
-0.21099854,-0.10247803,-0.057556152,-1.7786259999999998,0.57251906,0.259542,6
-0.21258545,-0.10705566400000001,-0.05609131,0.32824427,0.8396947,0.10687023,6
-0.21771239999999997,-0.10571289,-0.057434082000000004,1.9312977,0.24427481,0.22900763,6
-0.21307373,-0.10607910000000002,-0.06048584,3.4274809999999998,1.2519083999999998,0.35114503,6
-0.20983887,-0.10858154,-0.061340332000000004,3.5419848,2.3435113,2.3969467,6
-0.21551514,-0.105285645,-0.056640625,3.7862597,1.9160305,1.70229,6
-0.22344970000000003,-0.10485839999999998,-0.05456543,5.038168,2.4503817999999997,2.8091602000000004,6
-0.21069336,-0.101623535,-0.054748535,8.183207000000001,4.038168,3.1984732000000005,6
-0.2088623,-0.10473633,-0.057617188,11.916031,5.7480917,2.9160306,6
-0.20898438,-0.10510254,-0.062316895,16.030535,7.5267177,2.8549618999999997,6
-0.21264648,-0.10583496,-0.06213379,18.412214000000002,7.4274807,3.1450381000000003,6
-0.21398926,-0.10345459,-0.05505371,18.641222,9.412213000000001,4.145038,6
-0.20849610000000002,-0.10784912,-0.056030273,19.824427,8.244275,3.221374,6
-0.20770264,-0.11206055,-0.053955078,20.862595000000002,10.610686999999999,3.29771,6
-0.21911621,-0.10522461,-0.05255127,19.89313,11.381680000000001,3.5267177000000003,6
-0.2074585,-0.11022949,-0.05230713,19.358778,10.145039,2.7480917000000002,6
-0.21600342,-0.10772705,-0.055236815999999994,16.709923,9.198473,5.0,6
-0.21075439999999998,-0.107910156,-0.0501709,15.893129,8.572519,5.6488547,6
-0.21343994,-0.11157226599999999,-0.05419922,17.87023,8.335877,5.9923663000000005,6
-0.21075439999999998,-0.10888672,-0.05645752,15.366412,8.083969,5.1755724,6
-0.21197510000000003,-0.107299805,-0.06665039,16.480917,8.297709,6.1374044,6
-0.20629883,-0.10626221,-0.05316162,16.038168,9.335877,6.7557254,6
-0.20953369,-0.10638428,-0.06097412,16.022902,7.9465647,7.2671757,6
-0.21575928,-0.105407715,-0.061279297,15.328244,7.2519083,7.2824425999999995,6
-0.21105957,-0.10522461,-0.062316895,18.755726,9.954199000000001,6.89313,6
-0.20989989999999997,-0.10308838,-0.061523438,20.816793,10.694656,6.076336,6
-0.21051025,-0.10321045,-0.06390381,23.42748,12.206107000000001,5.9160304,6
-0.20751953,-0.10546875,-0.06524658,28.175572999999996,12.595419999999999,5.7022900000000005,6
-0.21087646,-0.10723877,-0.06561279,32.618320000000004,13.160305,4.3893127,6
-0.21264648,-0.11212158,-0.0625,35.694656,13.824428,6.671755999999999,6
-0.20855713,-0.11126709,-0.06109619,37.015266,14.839695,5.145038,6
-0.20861816,-0.11602783,-0.058654785,32.870228000000004,14.167939000000002,5.9694657,6
-0.20788574,-0.11529541,-0.056762695,22.175573,11.458015,5.0,6
-0.20684814,-0.11242676,-0.06060791,13.152672,7.816794,6.4274807,6
-0.20953369,-0.11047363,-0.06060791,12.19084,6.076336,6.4198474999999995,6
-0.20812988,-0.111450195,-0.07092285,12.198473,7.335878,6.89313,6
-0.20526123,-0.11254883,-0.06817627,12.053435,12.015267,7.900763499999999,6
-0.20141602,-0.107543945,-0.06744385,4.40458,11.450381,7.458015400000001,6
-0.20202637,-0.10131836,-0.074157715,2.2671757,8.282442999999999,8.916031,6
-0.19610596,-0.09967041,-0.07043457,5.8396945,7.480916000000001,12.106871,6
-0.19873047,-0.10736084,-0.07092285,10.351144999999999,6.9770994,14.076335999999998,6
-0.19976807,-0.11340332,-0.07159424,12.885496,3.3206108,14.938931,6
-0.2074585,-0.11853027,-0.07287598,14.061069,0.77099234,12.534351,6
-0.21124268,-0.12023926,-0.072387695,15.580152499999999,2.1526718,9.312977,6
-0.20819092,-0.12548828,-0.06842041,18.045801,-1.7328244,4.885496,6
-0.21154785,-0.12335205,-0.0715332,9.725191,-4.6793895,1.3206106000000002,6
-0.21325684,-0.12597656,-0.07287598,3.6259542000000002,-6.664122,-3.1068702,6
-0.21704102,-0.12341308599999999,-0.066345215,-10.7404585,-2.687023,-5.763358599999999,6
-0.21032715,-0.11437988,-0.060302734000000004,-31.580153000000003,-3.1450381000000003,-10.511451,6
-0.21234131,-0.09729004,-0.06365967,-46.564884,-9.2213745,-10.984733,6
-0.21258545,-0.08642578,-0.055786132999999995,-45.793890000000005,-10.305344,-10.053435,6
-0.21826172,-0.08795166,-0.060180664,-29.557251,-8.961832000000001,-7.29771,6
-0.21240234,-0.09222412,-0.06304932,-9.679389,-5.8396945,-3.778626,6
-0.21350098,-0.09283447,-0.05493164,1.5419847,-5.664122,-3.8625953,6
-0.21246338,-0.09436035,-0.05633545,11.053435,-3.5725190000000002,-2.908397,6
-0.22100830000000002,-0.10076904,-0.055419922,20.595419,-3.2366412,-5.1984735,6
-0.21905518,-0.10949707,-0.06274414,18.91603,-1.1450381,-6.114504,6
-0.21063232,-0.10852051,-0.051391599999999996,12.954199000000001,-0.35877863,-6.5114503,6
-0.21557617,-0.107299805,-0.05041504,6.816794,-2.3664122000000005,-6.0076336999999995,6
-0.21215820000000005,-0.1116333,-0.050720215,-0.77862597,-3.6641220000000003,-7.335878,6
-0.21148682,-0.11437988,-0.04711914,-3.923664,-4.664122,-6.8015265,6
-0.21520996,-0.11059569999999999,-0.051086426,-9.557252,-5.9007635,-7.8702292,6
-0.2074585,-0.10778808599999999,-0.051879882999999995,-9.687023,-4.931298,-8.793892999999999,6
-0.21270752,-0.10235596,-0.052490234000000004,-3.6793892,-3.0,-7.328244000000001,6
-0.21325684,-0.10223389,-0.055236815999999994,-0.29007635,-2.4503817999999997,-7.5725193,6
-0.21777344,-0.10046387,-0.047058105,-1.6870228999999999,-2.5801528,-6.900763499999999,6
-0.21282959,-0.10064697,-0.057006836,-3.6641220000000003,-3.038168,-6.2977099999999995,6
-0.222229,-0.09765625,-0.058044434000000006,-1.5419847,-0.8549618,-6.9541984,6
-0.21118164,-0.097473145,-0.051635742000000005,1.5877863,2.2671757,-2.7251909,6
-0.21752929999999995,-0.09808349599999999,-0.046813965,6.3511453,3.206107,-0.3053435,6
-0.22033691,-0.10443115,-0.04443359400000001,9.702291,3.832061,2.1145039,6
-0.21813965,-0.10510254,-0.04510498,12.862596,4.0458016,5.221374,6
-0.2230835,-0.10968017599999999,-0.034973145,15.526717000000001,3.8854961,4.40458,6
-0.21838379,-0.09991455,-0.028503418,18.297710000000002,6.366412,6.3893127,6
-0.19714355,-0.09954834,-0.03338623,23.152672,5.3893127,7.29771,6
-0.20422363,-0.11450195,-0.022094727,22.801527,1.7938931,8.480916,6
-0.20574951,-0.111328125,-0.02746582,12.435115,-0.6335878,12.702291,6
-0.21020508,-0.11016846,-0.026123047000000003,6.740458,-5.7099237,17.984734,6
-0.21496582,-0.11029053,-0.02722168,7.2442746,-4.5343513,23.549618,6
-0.22338867,-0.11010742,-0.028015137000000002,17.641222,-2.2442749,27.480916999999998,6
-0.22467041,-0.115234375,-0.025268555,27.786259,-0.60305345,29.74809,6
-0.21734619,-0.119262695,-0.026794434,32.473279999999995,-0.610687,28.91603,6
-0.21484375,-0.120910645,-0.028015137000000002,32.190838,-3.1755726,26.587785999999998,6
-0.21105957,-0.12170410000000002,-0.026123047000000003,30.38168,-7.1450380000000004,21.977098,6
-0.21179199,-0.12164307,-0.031982422,26.709923,-7.1755724,19.519083,6
-0.21514893,-0.12164307,-0.036193848,23.732824,-8.076336,15.648855,6
-0.20843506,-0.12054443,-0.038330078,20.885496,-7.6870227,14.320610999999998,6
-0.21166992,-0.12170410000000002,-0.040527344,19.648854999999998,-5.374046,12.167939,6
-0.21435547,-0.11840819999999999,-0.04748535,23.122137,-3.5190839999999994,11.404580000000001,6
-0.21630860000000002,-0.12097168,-0.04949951,27.816793,2.1145039,9.366412,6
-0.21771239999999997,-0.12048339999999998,-0.049072265999999996,29.404581,7.5267177,7.89313,6
-0.22015381,-0.121032715,-0.046569824,24.541985,12.671756,6.1679387000000006,6
-0.222229,-0.12677002,-0.043945312,8.580152499999999,11.396947,4.671755999999999,6
-0.23242188,-0.118652344,-0.043151855,-1.5114504,14.496182999999998,2.6641220000000003,6
-0.23010254,-0.1104126,-0.038391113,0.33587787,21.213741,0.6793893,6
-0.22869873,-0.11077881,-0.030700684,0.46564886,18.091601999999998,-2.3282442000000003,6
-0.22918701,-0.10827637,-0.037597656,-3.1908397999999996,14.374045,-2.129771,6
-0.24438477,-0.11108398400000001,-0.031677246,-0.19847329,17.809160000000002,-1.4122137,6
-0.24200439999999998,-0.10870361,-0.03656006,14.519084,21.366413,-1.0305344,6
-0.2388916,-0.11303711,-0.034057617000000005,19.648854999999998,29.80916,-0.49618322,6
-0.24908447,-0.117004395,-0.032104492000000005,19.221375,20.839695000000003,-2.1526718,6
-0.24694824,-0.11254883,-0.039489746,22.374046,23.656488,-6.2290077,6
-0.23254395,-0.10321045,-0.038024902,30.89313,31.67939,-11.580152499999999,6
-0.21069336,-0.10656738,-0.036254882999999995,34.961834,27.824427000000004,-21.603054,6
-0.18670654,-0.09545898400000001,-0.035949707000000004,26.351145000000002,22.664122,-33.679390000000005,6
-0.18536377,-0.09307861,-0.029846191,16.534351,16.007633,-37.992367,6
-0.19683838,-0.0914917,-0.03930664,5.015267400000001,10.435115,-36.53435,6
-0.20263672,-0.09613037,-0.0390625,-6.8778625,9.511451,-28.229008,6
-0.22241211,-0.083496094,-0.041503906,-7.70229,13.854961,-15.671756,6
-0.22033691,-0.07293701,-0.04534912,1.9923664,15.954199,-2.9007633,6
-0.21612549,-0.07263183599999999,-0.045715332000000004,15.458015,18.732824,10.129771,6
-0.21057129,-0.07775879,-0.048828125,22.610687,18.51145,16.763360000000002,6
-0.2166748,-0.08441162,-0.052856445,20.007633,12.770992,21.595419,6
-0.21960449,-0.09283447,-0.04443359400000001,13.7786255,7.6412214999999994,23.412214000000002,6
-0.21655273,-0.09649658,-0.055114746,13.343511999999999,10.381680000000001,25.38168,6
-0.22265625,-0.10272217,-0.05712890599999999,17.725191,11.236641,26.465649,6
-0.21972656,-0.10925293,-0.05291748,25.702289999999998,15.206107000000001,24.236639999999998,6
-0.20941162,-0.11212158,-0.05029297,26.541984999999997,19.641222,21.152672,6
-0.21154785,-0.10974121,-0.04852295,29.923664000000002,19.557251,17.145039,6
-0.21240234,-0.10467529,-0.08898926,64.908394,21.221375,12.122137,6
-0.23242188,-0.13665771,-0.09820557,47.221375,32.870228000000004,7.2290077,6
-0.21600342,-0.10473633,-0.079956055,6.740458,44.091602,-17.625954,6
-0.21508789,-0.09472656,-0.06591797,28.473282,31.694656,-13.969465,6
-0.23358154,-0.10369873,-0.051879882999999995,35.045803,10.358779,-21.656488,6
-0.21832275,-0.1182251,-0.058166504,24.57252,8.091603,-22.198473,6
-0.21240234,-0.11566162,-0.041870117000000005,-0.091603056,12.137404,-22.435114000000002,6
-0.20800781,-0.10168457,-0.04547119,-18.12977,4.9541984,-21.969465,6
-0.19073486,-0.0793457,-0.053527832000000004,-15.0,-3.1221373,-17.251910000000002,6
-0.19134521,-0.08728027,-0.05529785,-11.549619,-7.969465700000001,-10.748092,6
-0.18481445,-0.09527588,-0.07287598,-8.030535,-8.183207000000001,-1.6259542,6
-0.1828003,-0.09344482400000001,-0.08905029,-4.8396945,-9.366412,8.053435,6
-0.20147705,-0.097839355,-0.08172607400000001,-2.1908397999999996,-7.1755724,15.702291,6
-0.21118164,-0.10015869,-0.06890869,9.358779,-8.541985,18.267176,6
-0.23260498,-0.11840819999999999,-0.06738281,32.496179999999995,-9.587786999999999,19.458015,6
-0.22393799,-0.14422607,-0.06640625,22.93893,0.9389313,16.229008,6
-0.21380615,-0.13989258,-0.06408691400000001,-8.19084,6.038168,5.076336,6
-0.19604492,-0.11920166,-0.05731201,-6.557252,0.24427481,-8.251908,6
-0.19671631,-0.13159179999999998,-0.0357666,-86.229004,-20.57252,-4.8015265,6
-0.20074463,-0.09515381,-0.06036377,-111.8855,-28.229008,-9.793892999999999,6
-0.21380615,-0.07757568,-0.07507324,-77.28244000000001,-32.0,-1.9160305,6
-0.21929932,-0.08734131,-0.07202148400000001,-33.374046,-14.557251999999998,2.2824428,6
-0.22088623,-0.10333252,-0.06707764,-21.549618,-7.6412214999999994,8.427481,6
-0.22698975,-0.10119629,-0.06817627,-34.412212,-17.007633,5.3587785000000006,6
-0.22393799,-0.09802246,-0.07781982400000001,-47.17557,-17.022902,4.412214,6
-0.22283936,-0.087890625,-0.07507324,-51.221375,-7.923664,-2.1526718,6
-0.21343994,-0.07598877,-0.07879639,-56.748093000000004,-9.549619,-7.3587785000000006,6
-0.21679688,-0.06652832,-0.07189941400000001,-38.12214,-8.137404,-10.748092,6
-0.21795654,-0.07263183599999999,-0.07128906,-6.396946400000001,3.9770992,-8.717557000000001,6
-0.21765137,-0.083862305,-0.066467285,10.480916,6.6870227,-7.3664119999999995,6
-0.21417236,-0.09460449,-0.061523438,5.076336,1.6259542,-4.053435299999999,6
-0.21588135,-0.081848145,-0.07391357400000001,10.7404585,-0.22137405,-4.6412214999999994,6
-0.21496582,-0.0914917,-0.07763672,24.297710000000002,2.4503817999999997,-0.55725193,6
-0.21112060000000002,-0.10052489999999999,-0.07940674,17.053434,3.1755726,-0.77099234,6
-0.21325684,-0.10687256,-0.07128906,-5.2824425999999995,-1.221374,0.90076333,6
-0.21429443,-0.09985351599999999,-0.07110596,-22.06107,-5.587786,2.5954200000000003,6
-0.21234131,-0.09838867,-0.07141113,-27.358778000000004,-5.519083999999999,2.053435,6
-0.21661377,-0.09246826,-0.07104492,-21.351145000000002,-5.2442746,0.8167939000000001,6
-0.215271,-0.09387207,-0.062072754,-11.480916,-5.2519083,0.9847328000000002,6
-0.22015381,-0.09442139,-0.06011963,-14.977098999999999,-7.2290077,1.6030535,6
-0.21984863,-0.09405517599999999,-0.058654785,-20.152672,-9.564885,1.6183206,6
-0.21588135,-0.08752441400000001,-0.06628418,-22.770992,-11.839694999999999,1.6641221000000002,6
-0.21472168,-0.09222412,-0.059814453,-24.748089999999998,-12.946565,0.7480916,6
-0.22009277,-0.08288574,-0.06610107400000001,-25.152672,-13.160305,0.9312976999999999,6
-0.21813965,-0.08404541,-0.06793213,-23.068703,-13.549619,0.6793893,6
-0.22363281,-0.081970215,-0.0680542,-20.900763,-10.9007635,2.7175572,6
-0.22155762,-0.08068848,-0.07482910000000001,-13.290076000000001,-8.679389,4.114504,6
-0.21881104,-0.08435058599999999,-0.07202148400000001,-6.8244276,-6.442748,3.9847328999999996,6
-0.22003174,-0.0847168,-0.070129395,-1.0992366000000002,-3.2290077,1.8931297999999999,6
-0.22003174,-0.08380127,-0.06811523400000001,0.5801527,-2.0152671000000004,3.0076337000000004,6
-0.21295166,-0.09265137,-0.061462402,2.816794,-3.2137403,1.4045801000000002,6
-0.22119139999999998,-0.089904785,-0.06311035,3.6259542000000002,-2.3282442000000003,0.84732825,6
-0.21759033,-0.08996582,-0.06329346,1.4656489,-1.9236640999999999,-0.610687,6
-0.20971679999999995,-0.093811035,-0.06262207,0.7099236999999999,-4.221374,-0.60305345,6
-0.21710205,-0.09466553,-0.06640625,1.3664121999999999,-4.5801525000000005,-1.9694656000000004,6
-0.22277832,-0.08630371,-0.062561035,1.7404580000000003,-3.4427480000000004,-2.519084,6
-0.22131348,-0.09075928,-0.06506348,1.5954198999999998,-4.343511599999999,-3.1603053,6
-0.22711182,-0.09283447,-0.06555176,-1.9083970000000001,-3.3206108,-4.038168,6
-0.21575928,-0.091918945,-0.06414795,-4.9923663000000005,-0.2977099,-5.8625956,6
-0.22131348,-0.091308594,-0.0680542,-3.9160306000000005,-1.8244275,-6.7328243,6
-0.21954346,-0.08917236,-0.063964844,-0.70229006,-2.9847328999999996,-7.6793895,6
-0.21276855,-0.09655762,-0.072753906,1.3816794,-0.38167940000000006,-6.0305343,6
-0.21582031,-0.08929443,-0.062194824,1.1526718,0.26717559,-6.3511453,6
-0.21569824,-0.0949707,-0.070373535,0.54198474,-1.2977100000000001,-8.145039,6
-0.22698975,-0.09320068,-0.053588867000000005,1.2977100000000001,-1.7633588,-7.0839696,6
-0.2220459,-0.088012695,-0.06109619,0.41984734,-1.3740458,-5.931298,6
-0.20819092,-0.09295654,-0.06591797,-3.4732822999999997,-1.5725191,-5.221374,6
-0.22192383,-0.09460449,-0.06683349599999999,-6.1221375,-3.4122138,-6.1221375,6
-0.22235107,-0.10266113,-0.057861328,-7.236641400000001,-4.931298,-5.9541984,6
-0.21722412,-0.092285156,-0.056030273,-9.732824,-3.6183207000000004,-5.374046,6
-0.22290039,-0.09979248,-0.06225586,-12.671756,-3.076336,-4.809159999999999,6
-0.22558594,-0.09661865,-0.066589355,-11.755725,-5.5496182,-4.625954,6
-0.22155762,-0.09655762,-0.058776855,-11.389313000000001,-4.2977099999999995,-4.633588,6
-0.21539307,-0.09039307,-0.06591797,-10.480916,-2.8625952999999997,-5.038168,6
-0.2208252,-0.09234619,-0.06933594,-9.7786255,-3.8244274,-3.3740457999999998,6
-0.22406006,-0.09967041,-0.06866455,-9.625955000000001,-3.038168,-3.0152671000000004,6
-0.21923828,-0.09411621,-0.06671142599999999,-8.839694999999999,-2.389313,-2.6946564,6
-0.21868896,-0.091918945,-0.06390381,-11.229008,-3.2824428,-0.8778626,6
-0.21783447,-0.09295654,-0.061950684000000006,-12.572519,-4.473282299999999,-2.0839694,6
-0.21624756,-0.09399414,-0.067871094,-12.656488000000001,-2.8244274,-2.1145039,6
-0.21520996,-0.08953857400000001,-0.06616211,-9.473283,-2.9923662999999996,-1.648855,6
-0.21618652,-0.08929443,-0.06530762,-8.709924,-2.557252,-2.793893,6
-0.21850586,-0.08850098,-0.06573486,-6.625953999999999,-2.7175572,-1.8244275,6
-0.21801758,-0.09375,-0.06359863,-7.465648700000001,-2.0152671000000004,-2.0152671000000004,6
-0.22113037,-0.08843994,-0.06896973,-4.1221375,-1.7862595000000001,-2.0839694,6
-0.21704102,-0.08935547,-0.06549072,-5.1221375,-2.2290077,-2.038168,6
-0.2208252,-0.09307861,-0.07165527,-4.0839696000000005,-2.4961832000000004,-2.2519082999999998,6
-0.21948242,-0.09283447,-0.06561279,-3.8549618999999997,-0.26717559,-0.97709924,6
-0.21899414,-0.08874512,-0.06732178,-2.7557251,-1.0992366000000002,-1.5343511,6
-0.21685791,-0.09014892599999999,-0.06640625,-1.3129771000000001,-1.4045801000000002,-0.9312976999999999,6
-0.21618652,-0.091674805,-0.06732178,0.77862597,-0.6793893,-1.0763359,6
-0.22009277,-0.093933105,-0.06530762,1.8015267,0.57251906,-0.13740458,6
-0.21740723,-0.09161377,-0.06976318,1.4351145,1.1145038999999999,-2.908397,6
-0.21783447,-0.090026855,-0.06915283,1.7862595000000001,1.648855,-0.022900764,6
-0.21490479,-0.09173584,-0.06311035,2.465649,0.48091602,-1.2442749,6
-0.2144165,-0.093933105,-0.061767578,2.946565,1.1984733,-1.1832061000000003,6
-0.21496582,-0.095214844,-0.06872558599999999,4.7480917,0.64122134,-1.2061069,6
-0.21630860000000002,-0.09320068,-0.06951904,5.366412,2.1068702,-1.2519083999999998,6
-0.21673584,-0.09552002,-0.06335449,5.1297708,2.4122138,-0.6793893,6
-0.21722412,-0.097717285,-0.06732178,3.6335877999999995,1.3969465,-1.6641221000000002,6
-0.21008301,-0.09326172,-0.07110596,2.6488549999999997,1.3435115,-1.2061069,6
-0.21862793,-0.08477783,-0.061157227,3.9160306000000005,1.6717557,-3.2671757,6
-0.21893310000000002,-0.09655762,-0.06549072,4.8625956,0.47328246,-1.7404580000000003,6
-0.21520996,-0.09423828,-0.06896973,5.6488547,0.4427481,-1.3282443000000002,6
-0.21270752,-0.09661865,-0.06512451,6.1603055,0.5496183000000001,-1.4427481000000002,6
-0.22106934,-0.10064697,-0.0637207,6.7709923,-0.16793893,-1.961832,6
-0.21508789,-0.10278319999999999,-0.06597900400000001,4.114504,1.5725191,-1.2824427,6
-0.21655273,-0.103393555,-0.06359863,3.2748091,1.6030535,-1.8091604,6
-0.21923828,-0.10314941400000001,-0.06860351599999999,-0.18320611,1.4503816,-2.442748,6
-0.21313477,-0.100097656,-0.06024169999999999,-3.2290077,0.36641222,-2.4732822999999997,6
-0.21520996,-0.10076904,-0.06359863,-2.1145039,0.70229006,-3.5572519999999996,6
-0.22058105,-0.09118652,-0.06774902,2.183206,-0.90076333,-3.4885497,6
-0.21789551,-0.08959961,-0.06903076,3.6183207000000004,0.41221374,-2.4198472,6
-0.21533203,-0.09332275400000001,-0.06414795,5.335878,0.78625953,-2.2366412,6
-0.21380615,-0.10089111,-0.058044434000000006,6.9770994,1.4274809,-1.8091604,6
-0.21997070000000005,-0.09887695,-0.056030273,6.2671757,1.8625953999999998,-0.7633588000000001,6
-0.21228027,-0.10028076,-0.064453125,6.40458,0.89312977,-0.89312977,6
-0.21881104,-0.11022949,-0.061645507999999995,6.3053436,1.4503816,-0.6870229,6
-0.21246338,-0.10388183599999999,-0.05419922,6.6106872999999995,0.740458,-0.5954198,6
-0.20825195,-0.0993042,-0.06011963,6.931298,2.1450381000000003,-0.5648854999999999,6
-0.21179199,-0.10479736,-0.06060791,7.3587785000000006,1.4732825,-1.5648855,6
-0.22399902,-0.105529785,-0.06103515599999999,8.78626,0.41984734,-1.9312977,6
-0.21295166,-0.11053467,-0.060424805,6.0076336999999995,1.5343511,-1.5648855,6
-0.21569824,-0.10455322,-0.05657959,3.8091602,1.7251908999999999,-2.0305343000000002,6
-0.21679688,-0.10241699,-0.0637207,5.091603299999999,1.4427481000000002,-1.5419847,6
-0.22674560000000002,-0.10266113,-0.06420898400000001,3.7175572,1.8778626,0.6335878,6
-0.20343018,-0.111450195,-0.057434082000000004,0.89312977,-0.17557251,0.70229006,6
-0.21234131,-0.10101318,-0.05596924,0.6488550000000001,-0.2519084,1.1679389999999998,6
-0.20727539,-0.109313965,-0.046569824,0.33587787,-1.038168,-1.1679389999999998,6
-0.20727539,-0.09283447,-0.057800292999999996,-0.79389316,-1.5114504,-1.0229008,6
-0.21826172,-0.105285645,-0.05328369,3.3053436,-2.2748091,0.18320611,6
-0.21057129,-0.10534668,-0.0647583,3.076336,-0.15267175,-0.77099234,6
-0.21533203,-0.11468506,-0.054138184000000006,1.5801526000000001,-0.38167940000000006,-1.4351145,6
-0.21319580000000002,-0.10870361,-0.06463623,2.6488549999999997,-0.13740458,-2.1984732000000005,6
-0.21563720000000003,-0.10815430000000001,-0.06292724599999999,0.6793893,-1.2290076,-1.4503816,6
-0.21282959,-0.107299805,-0.06530762,-1.5419847,-0.79389316,-0.8854962,6
-0.21343994,-0.10644531,-0.06024169999999999,-1.6412214,-1.8244275,-0.5038168,6
-0.20898438,-0.11077881,-0.061462402,-3.961832,-3.076336,0.03816794,6
-0.21215820000000005,-0.10388183599999999,-0.061828613,-3.0,-1.2748091000000001,-0.43511450000000007,6
-0.21313477,-0.1038208,-0.06286621,-4.633588,-0.79389316,-1.4503816,6
-0.20861816,-0.107910156,-0.06542969,-4.8244276,-1.3816794,-0.38931298,6
-0.21289062,-0.1083374,-0.057006836,-6.3129773,-0.97709924,0.030534351,6
-0.21331787,-0.10516357400000001,-0.061157227,-7.068702,-2.5877862,-1.038168,6
-0.21105957,-0.10479736,-0.062194824,-9.297709,-2.0305343000000002,0.5801527,6
-0.21240234,-0.105407715,-0.06121826,-8.496183,-3.5725190000000002,-0.8778626,6
-0.21142578,-0.10211182,-0.06262207,-8.274809,-3.0229008,0.061068702,6
-0.21636963,-0.10357666,-0.06732178,-7.793893300000001,-2.0229008,0.122137405,6
-0.21185303,-0.10321045,-0.06121826,-9.824428,-0.71755725,-0.38931298,6
-0.21697998,-0.10491943,-0.06378174,-8.488549,-0.9694656999999999,-1.0763359,6
-0.2130127,-0.1026001,-0.06408691400000001,-8.427481,-2.870229,-1.1984733,6
-0.21411133,-0.103393555,-0.064331055,-8.480916,-1.1908396,-2.9694657,6
-0.21002197,-0.1026001,-0.06121826,-8.969465,-2.4580152,-1.8473282,6
-0.21185303,-0.10443115,-0.059692382999999995,-9.893129,-0.90076333,1.0992366000000002,6
-0.21533203,-0.10662842,-0.060913086,-9.076336,-1.6335878000000001,-1.9465648999999998,6
-0.21124268,-0.103515625,-0.060180664,-7.8702292,-2.2671757,-0.099236645,6
-0.21221924,-0.10314941400000001,-0.060913086,-8.755725,-3.1068702,-1.4274809,6
-0.21392822,-0.10455322,-0.06097412,-9.145039,-3.0687022,-1.0,6
-0.21734619,-0.10235596,-0.06280517599999999,-9.847328,-4.89313,-0.55725193,6
-0.20983887,-0.10949707,-0.061767578,-10.007633,-4.091603299999999,-0.77099234,6
-0.21343994,-0.09649658,-0.06549072,-10.648855000000001,-3.6030532999999996,-2.0839694,6
-0.21765137,-0.10015869,-0.06341553,-6.0,-2.8854961,-1.9007633999999998,6
-0.21264648,-0.093933105,-0.061950684000000006,-3.0229008,-0.259542,-2.8473282,6
-0.21185303,-0.09423828,-0.06512451,0.8015267,0.5114504,-2.1755726,6
-0.21447754,-0.09765625,-0.06121826,2.9389312000000003,1.0839695,-1.9465648999999998,6
-0.21112060000000002,-0.10076904,-0.058410645,1.9770991999999998,-0.39694658,-1.4656489,6
-0.21600342,-0.09918213,-0.0625,-0.022900764,0.8854962,-1.5725191,6
-0.21374512,-0.10418701,-0.05822754,-0.129771,0.32824427,-2.1755726,6
-0.21362305,-0.10223389,-0.06365967,-2.0305343000000002,-1.221374,-0.24427481,6
-0.21179199,-0.10021973,-0.05090332,-1.5114504,-1.4732825,-2.7328243,6
-0.21661377,-0.10314941400000001,-0.061645507999999995,-2.4045799999999997,-0.7557252,-1.8015267,6
-0.21435547,-0.10418701,-0.05731201,-4.1603055,-1.3129771000000001,-2.427481,6
-0.21276855,-0.09942627,-0.06524658,-5.4503818,-2.0610688,-1.9847328999999998,6
-0.22210693,-0.09741211,-0.061584473,-3.9160306000000005,0.099236645,-2.6793892,6
-0.21374512,-0.10369873,-0.061706542999999996,-2.8778627,0.96183205,-1.2061069,6
-0.21588135,-0.11035156,-0.061645507999999995,-3.6106870000000004,-0.061068702,-2.091603,6
-0.21655273,-0.10571289,-0.06005859400000001,-3.8473281999999998,-0.53435117,-2.5496182000000003,6
-0.21929932,-0.10467529,-0.06274414,-2.7862597,-0.114503816,-2.8549618999999997,6
-0.21405029999999997,-0.1026001,-0.06439209,-1.3435115,1.1068702,-4.2900763,6
-0.21057129,-0.10180664,-0.06109619,-2.1221373,0.39694658,-3.1755726,6
-0.21765137,-0.106933594,-0.062683105,-2.4351146,-0.4274809,-3.9007633000000004,6
-0.22076416,-0.10284424,-0.064331055,-1.2137405,1.9541985,-0.36641222,6
-0.20568848,-0.10217285,-0.060180664,-1.2061069,0.40458015,-0.9847328000000002,6
-0.22680664,-0.09722900400000001,-0.057861328,-2.5801528,-0.053435113,-0.9694656999999999,6
-0.21789551,-0.109558105,-0.06488037,-3.9007633000000004,0.053435113,-0.091603056,6
-0.22137451,-0.10052489999999999,-0.064575195,-5.625954,-0.48854962,0.52671754,6
-0.21319580000000002,-0.09515381,-0.058410645,-8.175572,-1.8473282,1.4580153,6
-0.21551514,-0.10589599599999999,-0.07202148400000001,-9.824428,-2.091603,1.9465648999999998,6
-0.21759033,-0.10632324,-0.06994629,-11.503817,-1.5114504,1.3740458,6
-0.21282959,-0.10467529,-0.070251465,-11.435115,0.33587787,2.0152671000000004,6
-0.21087646,-0.10662842,-0.061950684000000006,-10.290076,2.946565,-0.18320611,6
-0.20947266,-0.10577392599999999,-0.062072754,-6.480916000000001,4.2137402999999996,-2.2748091,6
-0.21075439999999998,-0.099609375,-0.06762695,-2.3435113,5.671755999999999,-3.1755726,6
-0.21026611,-0.101379395,-0.06488037,0.27480915,5.2748094000000005,-2.923664,6
-0.20977783,-0.093933105,-0.06616211,0.099236645,4.0305343,-3.3664122000000005,6
-0.21331787,-0.093933105,-0.06579589999999999,-1.5038168,3.8167940000000002,-4.5801525000000005,6
-0.21350098,-0.091674805,-0.06481933599999999,-0.5038168,2.0610688,-1.0534351,6
-0.21154785,-0.0914917,-0.06750488,5.7709923,3.0,-0.73282444,6
-0.21386719,-0.095825195,-0.06945801,8.488549,2.7328243,1.7480916000000002,6
-0.21551514,-0.0960083,-0.068359375,9.290076,3.206107,1.351145,6
-0.21472168,-0.09997558599999999,-0.06927489999999999,10.015267,2.4122138,4.221374,6
-0.20623779999999997,-0.09277344,-0.06640625,10.687023,3.5496182000000003,4.2824425999999995,6
-0.20788574,-0.09490967,-0.07562256,12.770992,3.40458,7.8244276,6
-0.20788574,-0.10546875,-0.06842041,9.0,1.8473282,11.717557000000001,6
-0.21350098,-0.10498047,-0.064941406,0.5648854999999999,0.90839696,11.496183,6
-0.21350098,-0.10449219,-0.07116699,5.221374,4.5114503,9.870229,6
-0.21740723,-0.11157226599999999,-0.07055664,11.206107000000001,3.3587787000000002,3.793893,6
-0.21472168,-0.10949707,-0.070129395,8.526717,2.4580152,1.0763359,6
-0.21252441,-0.10839844,-0.06982422,5.7251905999999995,2.908397,0.32061067,6
-0.21099854,-0.10968017599999999,-0.06732178,-4.343511599999999,0.045801528,-0.19083970000000003,6
-0.21221924,-0.10284424,-0.068237305,-9.312977,-5.366412,-0.89312977,6
-0.21038818,-0.10192871,-0.07043457,-10.229008,-3.091603,-0.5038168,6
-0.21258545,-0.10284424,-0.07421875,-8.664123,-3.2519082999999998,0.06870229,6
-0.21343994,-0.10296631,-0.06933594,-8.572519,-4.0610685,-1.0610687,6
-0.21209717,-0.100097656,-0.07067871,-9.404580000000001,-0.5801527,-3.1221373,6
-0.21276855,-0.095214844,-0.07592773400000001,-5.1679387000000006,-0.78625953,-1.6412214,6
-0.20977783,-0.09924316400000001,-0.0715332,-2.3358779999999997,-2.2366412,-3.6870230000000004,6
-0.21276855,-0.09869385,-0.07397461,1.6717557,-1.3282443000000002,-0.84732825,6
-0.21252441,-0.10101318,-0.07647705,-1.2519083999999998,2.7557251,1.0992366000000002,6
-0.21112060000000002,-0.105407715,-0.07092285,-6.9160304,-2.1908397999999996,-0.6183206,6
-0.21197510000000003,-0.10559082,-0.07507324,-8.9007635,-4.10687,-1.7862595000000001,6
-0.21069336,-0.09942627,-0.06713867,-9.954199000000001,-2.8244274,-2.0458016,6
-0.20690918,-0.10186767599999999,-0.07354736,-9.854961,-2.8625952999999997,-2.2137403,6
-0.21130371,-0.099731445,-0.06213379,-11.931297,-5.671755999999999,-1.038168,6
-0.21295166,-0.09606933599999999,-0.0635376,-9.7786255,-6.862595599999999,-1.610687,6
-0.2166748,-0.0993042,-0.06561279,-7.1450380000000004,-4.053435299999999,-1.5877863,6
-0.21331787,-0.09698486,-0.0680542,-5.5038165999999995,-3.6717557999999997,-3.0687022,6
-0.21618652,-0.10021973,-0.06945801,-5.625954,-3.4732822999999997,-1.8396946,6
-0.21777344,-0.0960083,-0.07354736,-4.5801525000000005,-1.7938931,-1.9541985,6
-0.21887207,-0.09631348,-0.06463623,-5.2442746,-1.3129771000000001,-2.0610688,6
-0.21087646,-0.10040283,-0.05731201,-4.923664,-2.2671757,-1.9236640999999999,6
-0.20953369,-0.10192871,-0.06701660000000001,-6.2137402999999996,-3.2519082999999998,-2.2671757,6
-0.21911621,-0.10131836,-0.062561035,-7.763358599999999,-3.59542,-2.5877862,6
-0.21740723,-0.09320068,-0.06488037,-7.862595599999999,-3.832061,-2.1984732000000005,6
-0.21795654,-0.10229492,-0.062683105,-7.1984735,-3.9770992,-2.961832,6
-0.21984863,-0.091918945,-0.059326172,-6.6412214999999994,-2.6030533,-0.610687,6
-0.22503662,-0.09320068,-0.06463623,-6.4885497,-2.1450381000000003,-1.6183206,6
-0.22961426,-0.09869385,-0.07373047,-4.7709923,-1.6946564999999998,-1.0992366000000002,6
-0.21325684,-0.09869385,-0.06713867,-3.1145039,-1.9770991999999998,-0.9465648999999999,6
-0.21105957,-0.10424805,-0.07043457,-3.0458016,-1.1755725000000001,0.5114504,6
-0.21136475,-0.09539795,-0.066589355,-3.908397,-1.610687,-1.1221374,6
-0.21118164,-0.09814453,-0.061584473,0.17557251,-0.5496183000000001,-0.38167940000000006,6
-0.21795654,-0.10046387,-0.06628418,-3.2519082999999998,-0.27480915,-1.1679389999999998,6
-0.20910645,-0.09503174,-0.06335449,-0.64122134,-1.4427481000000002,0.45038167,6
-0.21380615,-0.09875488,-0.07293701,-0.31297709999999995,-0.24427481,0.26717559,6
-0.21685791,-0.09326172,-0.06774902,-0.4427481,0.8015267,0.99236643,6
-0.21490479,-0.09197998,-0.06793213,2.3053436,0.90839696,1.4656489,6
-0.21557617,-0.09692383,-0.06939697,4.664122,0.35114503,0.4274809,6
-0.21575928,-0.09802246,-0.070495605,4.4656487,1.6717557,1.9465648999999998,6
-0.21728516,-0.10089111,-0.072387695,4.9541984,1.6564884999999998,1.4580153,6
-0.21276855,-0.09674072,-0.06347656,5.10687,1.1145038999999999,0.8396947,6
-0.21850586,-0.10076904,-0.06481933599999999,4.259542,1.3587786,1.0305344,6
-0.20788574,-0.10052489999999999,-0.06530762,2.4961832000000004,1.5877863,1.0229008,6
-0.21118164,-0.099121094,-0.07067871,4.0229006,1.1908396,0.84732825,6
-0.21405029999999997,-0.09777832,-0.07122803,2.9312978,0.48854962,0.8167939000000001,6
-0.21759033,-0.10229492,-0.06573486,4.8396945,0.64122134,-0.4274809,6
-0.21618652,-0.099609375,-0.072143555,2.2900763,0.2519084,0.9465648999999999,6
-0.21337889999999998,-0.10125732400000001,-0.06378174,0.31297709999999995,-0.53435117,1.1374046,6
-0.21405029999999997,-0.10144043,-0.06988525400000001,1.0,-0.32061067,0.64122134,6
-0.21533203,-0.1026001,-0.06945801,-0.65648854,0.7633588000000001,0.65648854,6
-0.21557617,-0.09790039,-0.068847656,-1.221374,-1.9083970000000001,1.7480916000000002,6
-0.21215820000000005,-0.09729004,-0.06896973,-1.3969465,-2.1526718,0.8549618,6
-0.21490479,-0.10180664,-0.07208252,-1.9847328999999998,-0.23664123,-1.3664121999999999,6
-0.21252441,-0.09729004,-0.07019043,-1.6717557,-0.3053435,0.9465648999999999,6
-0.2232666,-0.09826660000000001,-0.06304932,-0.84732825,-0.519084,-0.8015267,6
-0.21447754,-0.09722900400000001,-0.07525635,0.4274809,-0.6870229,-0.47328246,6
-0.21624756,-0.09741211,-0.06927489999999999,0.8091603,-0.65648854,-1.221374,6
-0.21612549,-0.09918213,-0.06921387,1.1832061000000003,0.10687023,-0.8015267,6
-0.21594238,-0.09649658,-0.07366943,0.48091602,-0.90076333,-0.045801528,6
-0.21429443,-0.09625244,-0.07006836,1.1145038999999999,-0.17557251,-0.6870229,6
-0.21203613,-0.09259033,-0.07519531,3.923664,-0.06870229,-0.49618322,6
-0.21179199,-0.10015869,-0.06915283,3.6335877999999995,1.8167938999999997,-0.5954198,6
-0.21154785,-0.09967041,-0.06768799,4.236641400000001,1.2290076,-2.312977,6
-0.21319580000000002,-0.101623535,-0.064453125,4.038168,1.0839695,-2.4885497,6
-0.21520996,-0.10125732400000001,-0.0637207,3.8091602,2.206107,-0.6870229,6
-0.21868896,-0.10021973,-0.0635376,4.961832,-0.053435113,-1.4045801000000002,6
-0.22009277,-0.10217285,-0.06671142599999999,2.4961832000000004,1.3206106000000002,-0.7633588000000001,6
-0.21319580000000002,-0.09729004,-0.06262207,3.0305343,0.40458015,-1.2366412,6
-0.21252441,-0.10186767599999999,-0.0680542,2.0610688,-1.4885496,-1.2442749,6
-0.21801758,-0.10388183599999999,-0.06488037,-1.3587786,0.03816794,-1.1374046,6
-0.21203613,-0.105529785,-0.05999756,-0.7480916,0.08396947,-0.610687,6
-0.21594238,-0.10113525400000001,-0.06201172,-3.5725190000000002,-2.610687,-0.8015267,6
-0.21801758,-0.10064697,-0.059326172,-3.3053436,-0.8244275,-0.740458,6
-0.21313477,-0.10235596,-0.06060791,-4.3206105,-1.6412214,-1.8549619,6
-0.21453857,-0.10296631,-0.061523438,-6.076336,-3.0,-3.3816792999999996,6
-0.21417236,-0.1026001,-0.06512451,-6.2290077,-3.7251909,-2.3587787000000002,6
-0.21502686,-0.099609375,-0.062438965,-5.8396945,-1.9007633999999998,-1.9694656000000004,6
-0.21252441,-0.09887695,-0.059326172,-5.3587785000000006,-0.84732825,-2.1526718,6
-0.21496582,-0.09655762,-0.06982422,-4.335878,-1.1908396,-0.79389316,6
-0.21197510000000003,-0.091674805,-0.058288574,-1.6030535,-0.7633588000000001,-0.5954198,6
-0.22119139999999998,-0.09863281,-0.06518555,-0.9236641,-0.8167939000000001,-2.1755726,6
-0.21832275,-0.101379395,-0.05810547,0.061068702,0.045801528,-2.2137403,6
-0.21911621,-0.09375,-0.06481933599999999,-0.35114503,0.114503816,-1.3282443000000002,6
-0.21893310000000002,-0.10131836,-0.06463623,-0.48091602,-1.1145038999999999,-2.0687022,6
-0.21374512,-0.10223389,-0.06988525400000001,-2.312977,-0.45801526,-0.5801527,6
-0.21356201,-0.10461426,-0.064331055,-2.5114503,-1.4045801000000002,-1.0534351,6
-0.21722412,-0.10388183599999999,-0.074279785,-3.4427480000000004,-1.1984733,-0.70229006,6
-0.20989989999999997,-0.10418701,-0.07073974599999999,-2.3282442000000003,-0.64122134,-1.6793894,6
-0.21057129,-0.10290527,-0.060546875,2.0610688,-0.5038168,-1.0610687,6
-0.21923828,-0.09863281,-0.06677246,-1.6870228999999999,-0.5496183000000001,-1.0152671,6
-0.21765137,-0.09918213,-0.06762695,-0.41984734,-0.053435113,-2.129771,6
-0.21954346,-0.09722900400000001,-0.06811523400000001,1.221374,0.2977099,-2.6030533,6
-0.22558594,-0.09918213,-0.06597900400000001,-0.015267176,1.038168,-2.2595419999999997,6
-0.22772217,-0.111816406,-0.07281494,1.9465648999999998,1.5572518999999998,-0.73282444,6
-0.22015381,-0.103027344,-0.06378174,2.534351,1.6870228999999999,-0.061068702,6
-0.21350098,-0.10522461,-0.058410645,0.28244275,2.519084,-0.16030534,6
-0.21148682,-0.11248779,-0.058654785,-0.57251906,1.9236640999999999,-1.5801526000000001,6
-0.21020508,-0.10485839999999998,-0.06604004,-2.9007633,0.6946565,0.20610687,6
-0.21038818,-0.10015869,-0.06555176,-3.7328242999999994,0.35877863,1.9923664,6
-0.21887207,-0.10345459,-0.06536865,-2.557252,-0.15267175,0.9847328000000002,6
-0.21618652,-0.10125732400000001,-0.06591797,-3.4732822999999997,0.83206105,0.13740458,6
-0.21807861,-0.10498047,-0.07305908,-2.4503817999999997,1.6641221000000002,1.480916,6
-0.21606445,-0.106933594,-0.07318115,-4.854962,2.2748091,1.0229008,6
-0.21722412,-0.09967041,-0.07189941400000001,-5.2977099999999995,2.442748,0.20610687,6
-0.2166748,-0.10028076,-0.06939697,-5.152672,3.2442749,2.0152671000000004,6
-0.21173096,-0.10046387,-0.07385254,-4.6488547,5.656488400000001,1.1755725000000001,6
-0.21160889,-0.09851074,-0.07116699,-1.2671756,5.4351144,1.1755725000000001,6
-0.21087646,-0.09539795,-0.06738281,-1.7633588,4.5725193,1.4885496,6
-0.21484375,-0.097839355,-0.07104492,-3.70229,1.4045801000000002,2.2137403,6
-0.21258545,-0.10040283,-0.06945801,-5.778626,0.46564886,3.053435,6
-0.21392822,-0.105529785,-0.06665039,-8.267176,0.53435117,2.8854961,6
-0.21429443,-0.09942627,-0.06866455,-9.328244,4.3587785000000006,3.0610687999999997,6
-0.2109375,-0.095581055,-0.072143555,-7.076336,0.8702290000000001,1.7557251,6
-0.20727539,-0.09448242,-0.066345215,-7.458015400000001,-1.7862595000000001,1.2977100000000001,6
-0.21691895,-0.09106445,-0.07635498,-9.488549,-2.7557251,2.7404580000000003,6
-0.20831299,-0.09045410000000001,-0.07073974599999999,-5.557252,-4.1679387000000006,4.740458,6
-0.21307373,-0.09851074,-0.07330322,-2.9923662999999996,-4.2290077,6.3587785000000006,6
-0.21636963,-0.09649658,-0.07556152,-4.816794,-0.27480915,4.9541984,6
-0.20843506,-0.101379395,-0.07519531,-4.4351144,0.519084,3.534351,6
-0.22137451,-0.09906006,-0.07580566400000001,-3.6717557999999997,-0.49618322,-0.71755725,6
-0.21875,-0.0949707,-0.076171875,-4.0152674,-1.5801526000000001,-0.8778626,6
-0.20776367,-0.08831787,-0.07208252,-1.9236640999999999,-0.06870229,-0.19083970000000003,6
-0.20953369,-0.09246826,-0.07061767599999999,3.3740457999999998,0.53435117,2.091603,6
-0.21771239999999997,-0.09881592,-0.076171875,4.3511453,1.2366412,2.610687,6
-0.21319580000000002,-0.09490967,-0.07336426,1.648855,1.8549619,-1.1374046,6
-0.21728516,-0.09576416,-0.06793213,-0.4427481,1.3358778999999998,-2.8473282,6
-0.21954346,-0.09448242,-0.06591797,1.0839695,-0.28244275,-4.664122,6
-0.21716309,-0.08709717,-0.067871094,5.8778625,1.2290076,-3.6412212999999998,6
-0.21148682,-0.08422851599999999,-0.06945801,9.206107000000001,0.9236641,-4.10687,6
-0.21026611,-0.08905029,-0.076660156,16.946566,1.7786259999999998,-0.5801527,6
-0.21051025,-0.09344482400000001,-0.07977295,21.496183,1.3816794,-0.022900764,6
-0.21533203,-0.09802246,-0.07385254,21.404581,2.4351146,0.10687023,6
-0.21264648,-0.10180664,-0.0725708,17.648854999999998,3.351145,0.6870229,6
-0.21520996,-0.09942627,-0.064575195,12.167939,1.610687,-2.2900763,6
-0.20489502,-0.09851074,-0.06579589999999999,12.549619,0.57251906,-1.5725191,6
-0.22167969,-0.103637695,-0.055908203,14.541985,-0.26717559,-1.6717557,6
-0.21319580000000002,-0.10467529,-0.07055664,12.045800999999999,-0.96183205,-1.2519083999999998,6
-0.2041626,-0.10058594,-0.06652832,7.778625999999999,-3.2290077,0.53435117,6
-0.21124268,-0.10534668,-0.06561279,6.076336,-1.0458015,0.70229006,6
-0.20989989999999997,-0.109313965,-0.07141113,6.221374,-2.2290077,-0.9389313,6
-0.20910645,-0.10784912,-0.06701660000000001,4.10687,-0.8778626,-3.2290077,6
-0.21234131,-0.114746094,-0.07019043,0.41221374,-0.90839696,-2.5496182000000003,6
-0.22033691,-0.117004395,-0.066345215,-3.4351146,-1.3816794,-4.4351144,6
-0.20782470000000003,-0.113220215,-0.059753417999999996,-11.061069,-2.832061,-3.7480917000000002,6
-0.21398926,-0.101501465,-0.06390381,-16.595419,-5.0610685,-4.2824425999999995,6
-0.2109375,-0.10504150400000001,-0.06463623,-19.297710000000002,-5.6793895,-3.0152671000000004,6
-0.22747803,-0.097473145,-0.058776855,-16.160304999999997,-4.8625956,-3.7633588,6
-0.22009277,-0.10064697,-0.064331055,-14.885496,-4.366412,-2.5114503,6
-0.20843506,-0.09448242,-0.06292724599999999,-12.19084,-2.6259542000000002,-2.9847328999999996,6
-0.20989989999999997,-0.09881592,-0.06567383,-11.076336,-1.4885496,-2.3511450000000003,6
-0.215271,-0.097717285,-0.057006836,-9.122137,-2.961832,-2.9770992,6
-0.21752929999999995,-0.10394287,-0.068237305,-5.3587785000000006,0.14503817,-2.6717557999999997,6
-0.21905518,-0.10290527,-0.06317139,-3.3053436,2.3740457999999998,-2.1984732000000005,6
-0.21905518,-0.09454346,-0.053955078,-0.79389316,2.8778627,-2.8244274,6
-0.21130371,-0.10284424,-0.06671142599999999,3.4122138,3.6946564,-2.7099237,6
-0.2166748,-0.09539795,-0.07373047,8.0992365,4.366412,-2.8091602000000004,6
-0.21130371,-0.09826660000000001,-0.0647583,7.1984735,5.656488400000001,-2.389313,6
-0.21697998,-0.09698486,-0.06927489999999999,7.137404400000001,2.167939,-1.6564884999999998,6
-0.21594238,-0.10272217,-0.06854248,4.8625956,1.4656489,1.259542,6
-0.21057129,-0.10449219,-0.06988525400000001,4.40458,1.8854961,1.2061069,6
-0.20983887,-0.104003906,-0.06469726599999999,5.076336,3.0992367,1.5572518999999998,6
-0.2144165,-0.10736084,-0.06970215,3.465649,-0.15267175,1.7404580000000003,6
-0.21832275,-0.10052489999999999,-0.07141113,1.8778626,1.7404580000000003,0.114503816,6
-0.21508789,-0.0993042,-0.06860351599999999,3.0229008,6.2061067,1.3206106000000002,6
-0.21179199,-0.10290527,-0.07293701,4.3893127,5.038168,1.9236640999999999,6
-0.21569824,-0.10369873,-0.07165527,6.3587785000000006,2.6717557999999997,3.4961832000000004,6
-0.20812988,-0.09704589999999999,-0.06689453,9.152672,6.328244000000001,1.1450381,6
-0.20812988,-0.10357666,-0.06530762,12.603053,3.2595419999999997,3.8167940000000002,6
-0.20324707,-0.11248779,-0.066589355,5.519083999999999,0.64122134,2.2366412,6
-0.20404053,-0.11462402,-0.061767578,-9.389313000000001,-1.5877863,3.1450381000000003,6
-0.20587158,-0.11090088,-0.06335449,-19.442749,-7.091603299999999,4.190840000000001,6
-0.21191406,-0.105285645,-0.064453125,-12.603053,-5.4351144,0.71755725,6
-0.21362305,-0.10772705,-0.06109619,1.9160305,-2.6641220000000003,-1.8549619,6
-0.21392822,-0.11621094,-0.06866455,6.1984735,-1.5801526000000001,-1.8320610000000002,6
-0.21520996,-0.11462402,-0.07067871,-0.97709924,-2.0229008,-3.1145039,6
-0.21374512,-0.12030029,-0.07501221,-11.908397,-4.4503818,-3.5190839999999994,6
-0.21447754,-0.11682129,-0.07446289,-26.396946000000003,-4.9770994,-4.984732599999999,6
-0.21044922,-0.107299805,-0.07562256,-35.946564,-7.6183205,-3.961832,6
-0.21136475,-0.09472656,-0.08123779,-37.374046,-7.335878,-4.145038,6
-0.21453857,-0.09545898400000001,-0.07507324,-25.977098,-2.9770992,-4.587786,6
-0.21478271,-0.09442139,-0.0715332,-9.351144999999999,2.6641220000000003,-4.9160304,6
-0.21002197,-0.08929443,-0.06781006,-4.656488400000001,1.8091604,-4.0992365,6
-0.21594238,-0.08563232400000001,-0.07342529,-8.137404,-0.64122134,-3.7099237,6
-0.20855713,-0.07989502,-0.07879639,-5.2824425999999995,3.2671757,-3.2671757,6
-0.2154541,-0.08532715,-0.06561279,2.1755726,3.7328242999999994,-1.0229008,6
-0.21746826,-0.07873535,-0.0725708,4.8244276,4.0610685,1.3435115,6
-0.21850586,-0.07678223,-0.072753906,22.854961,7.7251906,5.396946400000001,6
-0.21014404,-0.09204101599999999,-0.06072998,31.145039,10.656488000000001,5.9007635,6
-0.19738770000000003,-0.09552002,-0.06530762,29.259542,8.984733,8.839694999999999,6
-0.19921875,-0.09594726599999999,-0.06530762,21.633587,5.6870227,5.809159999999999,6
-0.21179199,-0.103393555,-0.06347656,23.022902,3.2824428,8.473283,6
-0.20837402,-0.106933594,-0.06573486,26.67939,5.145038,10.183207000000001,6
-0.20568848,-0.11883545,-0.068359375,23.251910000000002,1.9389313000000001,10.267176,6
-0.20288086,-0.11920166,-0.0703125,14.687023000000002,-0.47328246,10.015267,6
-0.21759033,-0.12475586,-0.061828613,4.328244000000001,-6.412214,9.709924,6
-0.21405029999999997,-0.11688232400000001,-0.07623291,0.54198474,-6.053435299999999,5.236641400000001,6
-0.20965576,-0.11590576,-0.07312012,8.770992,-5.183206,-0.16793893,6
-0.20971679999999995,-0.13085938,-0.06756592,-13.374045,-4.7557254,-3.053435,6
-0.22546387,-0.12310791,-0.06555176,-29.51145,-9.770992,-4.8778625,6
-0.20440674,-0.109558105,-0.06903076,-37.366413,-13.473282999999999,-5.8625956,6
-0.21337889999999998,-0.08642578,-0.0647583,-36.984734,-11.366412,-7.923664,6
-0.21966553,-0.09606933599999999,-0.0635376,-30.664121999999995,-11.969465,-4.7480917,6
-0.21508789,-0.09545898400000001,-0.07006836,-26.328245000000003,-13.496182999999998,-3.351145,6
-0.22198486,-0.100097656,-0.05908203,-27.51145,-12.274809,-4.6946564,6
-0.21234131,-0.08709717,-0.068847656,-24.648854999999998,-9.450381,-7.40458,6
-0.21282959,-0.085754395,-0.059692382999999995,-12.946565,-10.580152499999999,-5.9923663000000005,6
-0.22320557,-0.09655762,-0.06640625,-11.282442999999999,-12.847328,-7.557252,6
-0.22528076,-0.09088135,-0.066467285,-7.465648700000001,-8.206107000000001,-6.2061067,6
-0.21630860000000002,-0.08441162,-0.07141113,5.885496,-9.2595415,-5.0992365,6
-0.21923828,-0.09472656,-0.06933594,10.175572,-7.6183205,-2.572519,6
-0.21868896,-0.09143066400000001,-0.06335449,11.633588,-4.221374,-3.9847328999999996,6
-0.21069336,-0.10485839999999998,-0.064941406,7.4961834000000005,-4.908396700000001,-1.9847328999999998,6
-0.20904541,-0.11157226599999999,-0.05242919999999999,-4.2519083,-7.656488400000001,-0.5954198,6
-0.21411133,-0.12133789,-0.048828125,-10.458015,-12.938931,-1.9312977,6
-0.20977783,-0.11785889,-0.047607422,-16.679389999999998,-12.725191,-2.2519082999999998,6
-0.21710205,-0.11035156,-0.06048584,-16.137404999999998,-13.152672,-3.9389312000000007,6
-0.21563720000000003,-0.107910156,-0.056884765999999996,-15.977098999999999,-11.80916,-5.0610685,6
-0.222229,-0.10345459,-0.05712890599999999,-16.030535,-13.572519,-8.526717,6
-0.21649169999999998,-0.1026001,-0.058288574,-20.725191,-12.984733,-9.320611,6
-0.22015381,-0.09753418,-0.05834961,-20.312977,-9.343511999999999,-8.954199000000001,6
-0.21881104,-0.09576416,-0.063964844,-15.832060999999998,-8.335877,-8.549619,6
-0.21630860000000002,-0.09533691400000001,-0.06469726599999999,-12.938931,-5.664122,-7.0,6
-0.21777344,-0.09503174,-0.05633545,-8.931297,-7.099236500000001,-5.664122,6
-0.21679688,-0.09454346,-0.061523438,-5.40458,-6.2061067,-6.7328243,6
-0.21679688,-0.0960083,-0.056762695,-5.076336,-6.0992365,-3.6030532999999996,6
-0.21472168,-0.09716797,-0.056640625,-3.2137403,-5.4503818,-4.335878,6
-0.22192383,-0.09851074,-0.057434082000000004,0.60305345,-4.259542,-5.9541984,6
-0.21612549,-0.097839355,-0.05834961,2.053435,-3.0610687999999997,-4.038168,6
-0.21063232,-0.09942627,-0.05316162,0.35114503,-4.4198474999999995,-3.648855,6
-0.21295166,-0.10186767599999999,-0.059570312,0.091603056,-3.1984732000000005,-4.7557254,6
-0.21649169999999998,-0.10052489999999999,-0.053771973,1.961832,-1.8854961,-2.1755726,6
-0.21179199,-0.10638428,-0.051513672,-0.90076333,-3.0458016,-3.5038167999999996,6
-0.21832275,-0.101623535,-0.051635742000000005,-0.45038167,-3.206107,-1.0534351,6
-0.21154785,-0.105651855,-0.048950195,-2.3053436,-2.6259542000000002,-2.6641220000000003,6
-0.21075439999999998,-0.10784912,-0.05706787,-4.3206105,-3.908397,-2.2671757,6
-0.21984863,-0.10479736,-0.05242919999999999,-1.1832061000000003,-2.2137403,-2.1221373,6
-0.21887207,-0.10827637,-0.054016113,-0.58778626,0.33587787,-0.90839696,6
-0.21679688,-0.11273193,-0.05731201,-1.2900764,0.5954198,-2.0152671000000004,6
-0.215271,-0.10681152,-0.05456543,-9.389313000000001,-0.55725193,-1.5496184,6
-0.21691895,-0.113220215,-0.055358887,-16.236639999999998,-1.6870228999999999,-0.49618322,6
-0.22167969,-0.10571289,-0.05230713,-19.366413,-1.8091604,0.18320611,6
-0.22235107,-0.10632324,-0.054748535,-16.91603,-2.442748,0.53435117,6
-0.21795654,-0.09985351599999999,-0.055480957000000004,-12.0992365,-0.13740458,-2.480916,6
-0.22210693,-0.101623535,-0.051208496,-7.343511599999999,2.557252,-2.6412212999999998,6
-0.22100830000000002,-0.10119629,-0.05493164,-6.2900763,1.2671756,-1.7328244,6
-0.21368408,-0.09942627,-0.055541992000000005,-6.6335880000000005,4.1374044,-0.67175573,6
-0.21594238,-0.09106445,-0.055847167999999996,-4.6793895,6.557252,0.129771,6
-0.21496582,-0.09460449,-0.055725098,0.70229006,5.2519083,1.2900764,6
-0.21972656,-0.09552002,-0.062561035,4.7557254,5.8625956,0.8396947,6
-0.21252441,-0.088378906,-0.06542969,15.366412,10.038167999999999,5.3053436,6
-0.22192383,-0.101623535,-0.06036377,12.671756,9.358779,4.4274807,6
-0.22497559,-0.10223389,-0.06060791,6.740458,8.274809,5.6870227,6
-0.21685791,-0.10394287,-0.058166504,8.145039,8.389313000000001,3.8931297999999996,6
-0.21697998,-0.10839844,-0.052978515999999996,8.885496,8.9007635,5.5343513,6
-0.21191406,-0.10229492,-0.054992676,5.015267400000001,4.183206,2.3435113,6
-0.21270752,-0.10815430000000001,-0.05419922,0.8244275,2.908397,2.908397,6
-0.21185303,-0.10003662,-0.05090332,-2.4122138,0.23664123,3.7328242999999994,6
-0.20715332,-0.09997558599999999,-0.06317139,-2.793893,-1.8549619,3.6030532999999996,6
-0.21392822,-0.10113525400000001,-0.057556152,-2.5877862,-1.6793894,2.0076337,6
-0.21710205,-0.09881592,-0.06878662,-2.8244274,0.6259541999999999,2.5496182000000003,6
-0.22155762,-0.09838867,-0.07159424,1.9312977,3.4580152,1.3282443000000002,6
-0.2300415,-0.09277344,-0.06512451,5.671755999999999,4.603053599999999,1.961832,6
-0.21612549,-0.101623535,-0.06359863,6.412214,6.412214,2.4732822999999997,6
-0.21710205,-0.10455322,-0.070495605,7.6946563999999995,6.2519083,3.4427480000000004,6
-0.21313477,-0.097473145,-0.059387207000000004,8.847328,3.9694656999999998,2.0687022,6
-0.2130127,-0.10723877,-0.055908203,9.198473,5.7862597000000004,0.65648854,6
-0.22363281,-0.103027344,-0.052124023,6.8778625,4.1221375,-0.19847329,6
-0.21282959,-0.10479736,-0.052856445,5.190840000000001,2.076336,-0.47328246,6
-0.20727539,-0.10583496,-0.05218506,2.4961832000000004,-0.114503816,-0.32824427,6
-0.21600342,-0.09918213,-0.06036377,1.5648855,-1.0534351,1.2977100000000001,6
-0.21478271,-0.101623535,-0.06671142599999999,1.0610687,-0.6488550000000001,0.48854962,6
-0.21643066,-0.10040283,-0.06420898400000001,-0.23664123,-1.7480916000000002,-0.7633588000000001,6
-0.21319580000000002,-0.10998535,-0.059814453,-2.167939,1.2977100000000001,1.0534351,6
-0.21356201,-0.10406494,-0.06719971,-2.8473282,0.35114503,-0.7557252,6
-0.21295166,-0.10461426,-0.06640625,-3.648855,-1.1297709999999999,-2.465649,6
-0.21374512,-0.10229492,-0.06011963,-1.610687,-0.23664123,-1.8320610000000002,6
-0.21411133,-0.10186767599999999,-0.06280517599999999,-1.6335878000000001,0.29007635,-1.1908396,6
-0.21002197,-0.1038208,-0.060546875,-3.6946564,-0.129771,-0.9694656999999999,6
-0.21832275,-0.10296631,-0.06292724599999999,-3.7404580000000003,-3.5801528,-1.7786259999999998,6
-0.21386719,-0.10449219,-0.059631348,-5.8015265,-3.9923663,-0.9160305000000001,6
-0.21289062,-0.09649658,-0.067871094,-5.9389315,-1.9160305,0.45801526,6
-0.21057129,-0.103027344,-0.06665039,-4.816794,-2.5954200000000003,-0.77099234,6
-0.20916748,-0.10101318,-0.063964844,-3.7557251000000003,-6.0076336999999995,-1.6335878000000001,6
-0.21185303,-0.10278319999999999,-0.06500244,-3.3893129999999996,-5.6488547,-3.2442749,6
-0.21978760000000003,-0.10424805,-0.06481933599999999,-2.9847328999999996,-3.3893129999999996,-1.038168,6
-0.21313477,-0.10504150400000001,-0.06549072,-5.152672,-0.06870229,-2.427481,6
-0.21612549,-0.10418701,-0.06555176,-8.816792999999999,-0.022900764,-1.3587786,6
-0.21295166,-0.09790039,-0.06481933599999999,-8.091603,-2.8244274,-4.2519083,6
-0.21337889999999998,-0.09942627,-0.059570312,-3.6870230000000004,-1.8778626,-2.6183207000000004,6
-0.2076416,-0.09490967,-0.056884765999999996,-5.557252,-0.6946565,-3.29771,6
-0.21606445,-0.09460449,-0.0637207,-6.068702,-4.2748094000000005,-0.8244275,6
-0.21069336,-0.09094238,-0.06262207,0.8778626,-1.9160305,-1.2671756,6
-0.20874023,-0.09271239999999999,-0.06011963,10.312977,4.2061067,-5.1374044,6
-0.22180176,-0.09698486,-0.06237793,18.709923,2.5801528,-5.10687,6
-0.23205566,-0.09753418,-0.059509277,16.709923,2.2900763,-4.236641400000001,6
-0.22546387,-0.09832764,-0.06036377,21.770992,10.748092,-0.9465648999999999,6
-0.21777344,-0.10015869,-0.048034667999999996,28.709923,8.106871,3.1374047000000003,6
-0.21582031,-0.10406494,-0.05065918,23.603054,5.2748094000000005,7.6488547,6
-0.19647217,-0.09466553,-0.051635742000000005,29.389313,10.564885,7.0534353,6
-0.18951416,-0.11212158,-0.042785645,40.435116,9.893129,15.19084,6
-0.19171143,-0.12182617,-0.035888672,11.19084,1.3282443000000002,17.015266,6
-0.20538330000000002,-0.111450195,-0.052856445,-5.9007635,-9.725191,19.633587,6
-0.21221924,-0.107543945,-0.052612305,8.839694999999999,-5.015267400000001,22.702289999999998,6
-0.22216797,-0.11389160000000002,-0.056640625,34.183205,10.351144999999999,23.343512,6
-0.21112060000000002,-0.11389160000000002,-0.06201172,45.82443,15.679389000000002,26.641221999999996,6
-0.22320557,-0.12805176,-0.04937744,39.381679999999996,16.0,25.885496,6
-0.21746826,-0.128479,-0.054382324,25.656488,15.59542,25.740458,6
-0.22344970000000003,-0.1171875,-0.05303955,19.595419,14.587786999999999,21.557251,6
-0.22912598,-0.11950683599999999,-0.061584473,25.022902,14.854961,17.763360000000002,6
-0.22857666,-0.11883545,-0.055114746,28.717558,21.305344,9.564885,6
-0.22167969,-0.10900879,-0.06005859400000001,34.015266,25.526718,2.3206108,6
-0.20965576,-0.101501465,-0.054504395,36.480915,20.679389999999998,-5.396946400000001,6
-0.20678711,-0.10675049,-0.06121826,35.160305,13.091603,-9.480916,6
-0.22332764,-0.097595215,-0.07263183599999999,46.93893,6.412214,-11.076336,6
-0.22674560000000002,-0.11694336,-0.07940674,58.725190000000005,15.076335999999998,-2.2671757,6
-0.18884277,-0.09857178,-0.08306885,52.87786,23.022902,2.3969467,6
-0.19677734,-0.11621094,-0.053649902,0.6793893,-4.259542,2.6335877999999995,6
-0.16680908,-0.10113525400000001,-0.052734375,-26.67939,-5.2290077,26.091601999999998,6
-0.18786621,-0.09423828,-0.062561035,-38.091602,-14.687023000000002,38.53435,6
-0.19573975,-0.09271239999999999,-0.06726074,-26.67939,-9.732824,50.10687,6
-0.19494629,-0.10095215,-0.06359863,-22.236639999999998,-7.076336,58.50382,6
-0.21496582,-0.10101318,-0.07550049,-18.137404999999998,-14.534351000000001,66.07633,6
-0.21868896,-0.11578369,-0.07519531,-17.557251,-13.648855,68.183205,6
-0.21319580000000002,-0.12329101599999999,-0.077941895,-13.938931,-6.862595599999999,59.38168,6
-0.21771239999999997,-0.12408447,-0.07714844,-6.59542,-7.412214,48.870228000000004,6
-0.23291016,-0.12866211,-0.08746338,-5.5038165999999995,-8.160305000000001,36.885498,6
-0.22723389,-0.12139892599999999,-0.08227539,-10.076336,-7.557252,21.725191,6
-0.23773193,-0.12725830000000002,-0.07769775400000001,-12.824428,-9.465649,12.877863,6
-0.28118896,-0.14678955,-0.09387207,-22.167938,-16.89313,8.633588,6
-0.27001953,-0.13104248,-0.08905029,-44.48855,-6.396946400000001,-3.7709922999999996,6
-0.2668457,-0.11590576,-0.08557129,-30.23664,19.274809,-12.412213000000001,6
-0.21875,-0.09533691400000001,-0.08489989999999999,-1.6946564999999998,35.15267,-39.221375,6
-0.18267822,-0.08911133,-0.068847656,19.38168,28.282442,-67.15267,6
-0.20581055,-0.10321045,-0.046936035,16.068703,12.374044999999999,-81.48092,6
-0.22802734,-0.11889648400000001,-0.05615234400000001,-25.541985,-8.007633,-86.34351,6
-0.26123047,-0.10882568,-0.051696777,-73.25191,7.9541984,-83.74809,6
-0.27575684,-0.0769043,-0.040893555,-81.9542,15.763359,-86.28244000000001,6
-0.2675171,-0.053894042999999996,-0.04284668,-43.85496,24.221375,-88.74045600000001,6
-0.25274658,-0.05432129,-0.043762207000000004,4.8015265,34.480915,-92.12977,6
-0.24053955,-0.07458496,-0.030944824,21.404581,32.06107,-94.55725,6
-0.22991943,-0.08129883,-0.026550293,-2.4198472,20.312977,-92.07633,6
-0.22106934,-0.06951904,-0.028625487999999998,-22.832062,18.778625,-85.73283,6
-0.21435547,-0.06097412,-0.019836426,-17.93893,21.786259,-71.32825,6
-0.21038818,-0.06188965,-0.030639648,-0.9847328000000002,18.152672,-55.587788,6
-0.20111084,-0.06915283,-0.03149414,5.2519083,17.954199,-39.312977000000004,6
-0.19750977,-0.07885742,-0.0357666,7.9541984,19.694656,-18.526718,6
-0.19268799,-0.07751465,-0.04650879,7.587786,19.206106,0.9465648999999999,6
-0.19238281,-0.08496094,-0.039367676000000004,4.114504,15.549619,16.977098,6
-0.19299316,-0.08825683599999999,-0.048217773,-1.7404580000000003,13.603053,32.091602,6
-0.20928955,-0.09442139,-0.053894042999999996,-10.870229,10.427481,46.526720000000005,6
-0.23419189999999998,-0.0960083,-0.053527832000000004,-14.068703,11.931297,52.358779999999996,6
-0.23022461,-0.084106445,-0.058532715,-4.4503818,20.412214000000002,60.961833999999996,6
-0.255188,-0.09106445,-0.061645507999999995,27.923664000000002,10.366412,75.71755999999999,6
-0.28826904,-0.10241699,-0.07141113,55.748093000000004,9.923664,89.56489,6
-0.26177979999999995,-0.104003906,-0.07519531,77.54961999999999,21.145039,92.05344000000001,6
-0.23321533,-0.10803223,-0.076049805,88.35114,38.450382,87.0687,6
-0.19366455,-0.10870361,-0.06567383,92.496185,23.57252,78.03817,6
-0.21362305,-0.12213135,-0.08605957,75.34351,-2.687023,72.48092,6
-0.21997070000000005,-0.11785889,-0.09387207,49.06107,-5.3206105,61.51145,6
-0.20300293,-0.10803223,-0.09967041,36.030533,14.106871,46.351147,6
-0.19567871,-0.09515381,-0.09082031,42.84733,8.839694999999999,35.862595,6
-0.19696045,-0.09106445,-0.10101318,54.61832,-0.9847328000000002,25.053434,6
-0.20263672,-0.09625244,-0.10620117,64.59541999999999,11.175572,15.435115,6
-0.19799805,-0.09454346,-0.09509277,70.26717,20.022902,6.6335880000000005,6
-0.20690918,-0.09991455,-0.08654785,62.84733000000001,12.106871,5.343511599999999,6
-0.22216797,-0.09436035,-0.089782715,55.068703,8.572519,4.8702292,6
-0.22869873,-0.090026855,-0.09240723,62.53435,20.458015,5.2977099999999995,6
-0.22320557,-0.09350586,-0.08233642599999999,69.229004,18.847328,3.4809160000000006,6
-0.21136475,-0.09808349599999999,-0.08984375,56.992367,6.557252,-1.2137405,6
-0.20648193,-0.09442139,-0.09667969,31.961832,5.0,-4.3053436,6
-0.19946289,-0.08233642599999999,-0.093811035,16.992367,1.4732825,-7.3664119999999995,6
-0.20275879,-0.07989502,-0.09667969,12.068703,2.6030533,-10.030535,6
-0.21697998,-0.07897949,-0.09655762,10.671756,6.1755724,-7.335878,6
-0.22314453,-0.07659912,-0.10479736,17.198473,13.053435,-3.7328242999999994,6
-0.22320557,-0.08203125,-0.08953857400000001,30.396946000000003,19.580153,4.190840000000001,6
-0.203125,-0.07904053,-0.08728027,44.587788,29.603053999999997,10.603053,6
-0.21875,-0.08813476599999999,-0.07653808599999999,54.778625,29.832062,19.038168,6
-0.2166748,-0.08911133,-0.06750488,55.137405,27.053434000000003,26.213741,6
-0.21954346,-0.09710693,-0.06933594,49.587788,31.923664000000002,33.297709999999995,6
-0.22320557,-0.09509277,-0.06414795,49.46565,28.671754999999997,33.580154,6
-0.21551514,-0.10601807,-0.06811523400000001,50.053436,23.076335999999998,34.816795,6
-0.22076416,-0.10473633,-0.06799316400000001,40.816795,19.305344,29.503816999999998,6
-0.21612549,-0.10430908,-0.07562256,28.198473,10.595419999999999,22.91603,6
-0.21740723,-0.10211182,-0.07916260000000001,21.931297,6.6870227,17.503817,6
-0.20977783,-0.09814453,-0.07073974599999999,23.603054,9.267176,12.19084,6
-0.20568848,-0.09985351599999999,-0.08245849599999999,22.114504,11.160305000000001,12.412213000000001,6
-0.215271,-0.11224365,-0.07769775400000001,10.076336,4.5801525000000005,16.335878,6
-0.21234131,-0.09667969,-0.08666992,5.152672,2.2290077,21.801527,6
-0.20874023,-0.09375,-0.08422851599999999,12.396947,10.122137,28.595419,6
-0.21069336,-0.105407715,-0.0803833,11.618319999999999,7.740458,37.85496,6
-0.20880127,-0.11364746,-0.08264160000000001,-5.091603299999999,1.4580153,41.221375,6
-0.21215820000000005,-0.10705566400000001,-0.08752441400000001,-13.511451000000001,3.351145,40.83206,6
-0.2142334,-0.10571289,-0.08276367,-8.030535,5.5648856,35.83206,6
-0.22723389,-0.11096191400000001,-0.0847168,-2.6946564,5.6488547,26.732824,6
-0.22534179999999995,-0.111206055,-0.081970215,-2.908397,7.671755999999999,18.38168,6
-0.22875977,-0.10614014,-0.08245849599999999,-1.5648855,10.2213745,8.595419999999999,6
-0.21673584,-0.10534668,-0.07965088,2.5267177000000003,10.007633,0.86259544,6
-0.2076416,-0.111206055,-0.07287598,-3.3969467000000004,8.328244,-8.824428,6
-0.20587158,-0.111206055,-0.06707764,-24.885496,0.22137405,-14.488548999999999,6
-0.20410156,-0.1015625,-0.07592773400000001,-42.816795,-7.1679387000000006,-21.656488,6
-0.20874023,-0.09460449,-0.07910156,-50.015266,-6.236641400000001,-25.38168,6
-0.20489502,-0.08752441400000001,-0.08392334,-42.23664,-1.0992366000000002,-27.954199,6
-0.20904541,-0.08264160000000001,-0.082214355,-24.656488,4.5725193,-33.519085,6
-0.21533203,-0.08422851599999999,-0.07611084,-10.610686999999999,9.030535,-34.190838,6
-0.20892334,-0.08306885,-0.07470703,1.2671756,15.129771,-39.396946,6
-0.20465088,-0.08312988,-0.07556152,8.015267,16.114504,-39.099236,6
-0.20947266,-0.08172607400000001,-0.06903076,11.511451,14.366412,-42.648853,6
-0.21002197,-0.08868408,-0.06317139,8.519084,11.152672,-40.114502,6
-0.22155762,-0.09197998,-0.0703125,5.6946564,7.1297708,-42.595420000000004,6
-0.22131348,-0.08483887,-0.06579589999999999,5.7251905999999995,6.7862597000000004,-41.717556,6
-0.21752929999999995,-0.08520508,-0.06945801,10.458015,4.374046,-42.610687,6
-0.21368408,-0.08148193,-0.06359863,15.0,-0.6335878,-37.992367,6
-0.21185303,-0.084106445,-0.06524658,14.396947,-5.4351144,-34.0229,6
-0.20269775,-0.089904785,-0.06329346,6.8778625,-12.587786999999999,-27.198473,6
-0.20202637,-0.08959961,-0.06579589999999999,-6.1221375,-22.984734,-19.030535,6
-0.19537354,-0.09509277,-0.07861328,-18.51145,-32.251907,-9.908397,6
-0.20056152,-0.09088135,-0.09936523400000001,-23.694656,-37.717556,-5.740458,6
-0.20629883,-0.08972168,-0.12792969,-19.854961,-35.44275,3.961832,6
-0.22039795,-0.09082031,-0.13482666,-6.59542,-28.267176,7.4732823,6
-0.21466064,-0.10003662,-0.1282959,14.2213745,-4.6793895,14.770992000000001,6
-0.21734619,-0.10906982400000001,-0.09313965,24.748089999999998,10.885496,18.961832,6
-0.19354248,-0.11352539,-0.08496094,16.190839999999998,13.931297,23.282442,6
-0.21051025,-0.11236572,-0.06951904,1.5038168,9.267176,25.030535,6
-0.2109375,-0.10510254,-0.08081055,4.7099237,14.0992365,23.641222,6
-0.21551514,-0.10089111,-0.064331055,34.274809999999995,22.022902,21.290077,6
-0.2041626,-0.09106445,-0.07775879,58.923664,28.91603,22.549618,6
-0.20666504,-0.10766601599999999,-0.06536865,93.061066,25.312977,30.351145000000002,6
-0.20922852,-0.11608887,-0.04437256,104.496185,21.236639999999998,26.48855,6
-0.19873047,-0.13433838,-0.031677246,74.16031,15.152672,26.885496000000003,6
-0.20953369,-0.14190674,-0.042907715,40.08397,3.4961832000000004,23.954199,6
-0.20574951,-0.13122559,-0.05529785,24.908398000000002,-7.6488547,19.458015,6
-0.21716309,-0.14129639,-0.045288086,3.183206,-8.419847500000001,14.290076000000001,6
-0.21972656,-0.13861084,-0.046142578,-22.358778,-10.694656,9.541985,6
-0.21734619,-0.12872314,-0.059814453,-28.648854999999998,-17.946566,4.412214,6
-0.21838379,-0.12921143,-0.05456543,-30.351145000000002,-16.389313,-1.648855,6
-0.2166748,-0.12408447,-0.05255127,-46.541985,-13.687023000000002,-10.267176,6
-0.20867919999999998,-0.11248779,-0.06439209,-57.389313,-18.198473,-10.0,6
-0.21472168,-0.10119629,-0.06463623,-44.549618,-17.374046,-9.946565,6
-0.22021484,-0.09185791,-0.07464599599999999,-9.664123,-9.824428,-7.8702292,6
-0.21112060000000002,-0.11053467,-0.080078125,15.160305,-0.13740458,-5.335878,6
-0.21282959,-0.11529541,-0.072265625,11.473283,1.8931297999999999,-5.9694657,6
-0.20581055,-0.1149292,-0.06903076,-2.8015267999999995,-0.78625953,-4.9007635,6
-0.21051025,-0.10882568,-0.05682373,-6.5496182,-1.4656489,-4.9923663000000005,6
-0.20538330000000002,-0.111328125,-0.05444336,-7.068702,-1.1221374,-5.6793895,6
-0.21844482,-0.11956787,-0.049682617000000005,-6.969465700000001,-3.1984732000000005,-6.656488400000001,6
-0.21057129,-0.10797119,-0.055419922,-4.5343513,-5.1221375,-4.908396700000001,6
-0.21209717,-0.10498047,-0.050842285,-1.038168,-4.0152674,-5.152672,6
-0.21264648,-0.10687256,-0.05230713,2.2748091,-1.7938931,-6.2977099999999995,6
-0.21411133,-0.109191895,-0.058776855,0.57251906,-4.8015265,-3.6641220000000003,6
-0.21496582,-0.10333252,-0.057373047,0.5648854999999999,-5.091603299999999,-4.1603055,6
-0.2109375,-0.10864258,-0.06390381,1.0229008,-3.351145,-4.3511453,6
-0.21148682,-0.109191895,-0.06579589999999999,0.39694658,-3.2595419999999997,-4.396946400000001,6
-0.21575928,-0.11090088,-0.06579589999999999,1.3587786,-2.7480917000000002,-3.0687022,6
-0.21313477,-0.10888672,-0.0625,0.7557252,-1.5801526000000001,-3.9694656999999998,6
-0.21502686,-0.10504150400000001,-0.061584473,0.15267175,0.35114503,-2.4885497,6
-0.21386719,-0.10650635,-0.061279297,2.8015267999999995,0.08396947,0.5648854999999999,6
-0.21240234,-0.10968017599999999,-0.061950684000000006,4.89313,1.0687023,1.7175573,6
-0.21362305,-0.110839844,-0.05810547,4.8320612999999994,0.32061067,2.6564887,6
-0.21197510000000003,-0.115722656,-0.057006836,2.1221373,-0.28244275,1.1908396,6
-0.21533203,-0.113464355,-0.054504395,-0.8244275,0.16793893,2.8473282,6
-0.21679688,-0.114746094,-0.05883789,-0.29007635,-0.31297709999999995,1.519084,6
-0.21118164,-0.110839844,-0.055664062,2.4351146,0.8854962,1.3053435,6
-0.21313477,-0.11151123,-0.06011963,5.8702292,0.67175573,1.6183206,6
-0.21343994,-0.11486816400000001,-0.04675293,4.3893127,3.4122138,-0.5648854999999999,6
-0.21429443,-0.11627197,-0.06036377,2.3053436,2.2824428,0.3053435,6
-0.21057129,-0.11602783,-0.052612305,-0.061068702,-0.16030534,1.1145038999999999,6
-0.20922852,-0.11126709,-0.054382324,-2.7709923,-0.41984734,-0.5496183000000001,6
-0.21539307,-0.10949707,-0.04833984400000001,-2.2519082999999998,-0.17557251,-0.5496183000000001,6
-0.21258545,-0.107910156,-0.054870605,-2.870229,1.4503816,0.06870229,6
-0.21868896,-0.10797119,-0.057556152,-0.8778626,-0.7557252,0.5114504,6
-0.21130371,-0.10852051,-0.055114746,0.65648854,1.7938931,0.9465648999999999,6
-0.20971679999999995,-0.10662842,-0.058776855,3.0610687999999997,2.8473282,-0.8778626,6
-0.20672607,-0.107910156,-0.052612305,4.152672,4.2442746,0.519084,6
-0.20782470000000003,-0.10614014,-0.05657959,4.8396945,3.6412212999999998,2.6717557999999997,6
-0.21484375,-0.11059569999999999,-0.05255127,8.129771,4.335878,1.4732825,6
-0.20751953,-0.11206055,-0.055236815999999994,6.961832000000001,6.114504,3.221374,6
-0.20892334,-0.10772705,-0.05279541,8.977099,3.648855,2.7175572,6
-0.20996094,-0.11206055,-0.054992676,9.580152499999999,4.1679387000000006,3.1603053,6
-0.20428467,-0.11212158,-0.05114746,11.122137,4.8320612999999994,1.6717557,6
-0.22045898,-0.11547851599999999,-0.05206299,11.793892999999999,4.5725193,2.4045799999999997,6
-0.21203613,-0.1171875,-0.05328369,12.709924,3.2519082999999998,0.97709924,6
-0.20434570000000002,-0.1149292,-0.051757812,11.061069,2.4503817999999997,0.64122134,6
-0.21649169999999998,-0.11981201,-0.055725098,9.893129,2.9160306,0.06870229,6
-0.20837402,-0.11193848,-0.045043945,10.534351,1.8931297999999999,-0.099236645,6
-0.21691895,-0.11364746,-0.053894042999999996,9.938931,2.9694657,-1.4427481000000002,6
-0.2144165,-0.11840819999999999,-0.058288574,8.80916,4.10687,-0.48091602,6
-0.21459961,-0.11981201,-0.061950684000000006,7.3053436000000005,4.59542,-0.10687023,6
-0.21905518,-0.11883545,-0.06097412,7.70229,4.847328,-0.045801528,6
-0.21618652,-0.11517334,-0.059570312,3.648855,3.9923663,1.5725191,6
-0.20410156,-0.11633301,-0.049621582000000004,3.1908397999999996,2.076336,0.67175573,6
-0.20562744,-0.111328125,-0.055725098,1.091603,2.8931298,0.26717559,6
-0.21203613,-0.11932373,-0.051513672,-0.97709924,-0.7251908,1.9923664,6
-0.20812988,-0.12182617,-0.046020507999999995,-3.1755726,-0.9312976999999999,2.1755726,6
-0.21636963,-0.11206055,-0.05242919999999999,-2.9541984,-1.6870228999999999,-0.17557251,6
-0.21319580000000002,-0.11450195,-0.04864502,-1.3206106000000002,-2.076336,0.18320611,6
-0.21325684,-0.117370605,-0.049865723,-0.53435117,-2.8396947,-1.3053435,6
-0.21203613,-0.11352539,-0.05444336,-1.1450381,-3.0229008,-1.610687,6
-0.21252441,-0.12011719,-0.057434082000000004,-1.9541985,-2.7709923,-1.2290076,6
-0.21520996,-0.11303711,-0.05822754,-0.65648854,-1.7175573,-1.6030535,6
-0.21099854,-0.10894775400000001,-0.054138184000000006,-1.8778626,-1.3358778999999998,-2.0687022,6
-0.21020508,-0.11419678,-0.05480957,-2.9694657,-2.5496182000000003,-1.4427481000000002,6
-0.20977783,-0.115722656,-0.056396484000000004,-3.6946564,-0.8396947,-1.3282443000000002,6
-0.21020508,-0.115722656,-0.05718994,-4.816794,-1.1374046,-1.1297709999999999,6
-0.20837402,-0.10467529,-0.05053711,-4.5038165999999995,-2.7099237,-3.167939,6
-0.21258545,-0.11279297,-0.05682373,-3.2671757,-1.3206106000000002,-0.8015267,6
-0.20892334,-0.11016846,-0.055114746,-1.2900764,-1.7786259999999998,-3.5114503,6
-0.21276855,-0.10998535,-0.055847167999999996,-3.053435,-2.3282442000000003,-0.8778626,6
-0.21228027,-0.11090088,-0.055480957000000004,-1.8015267,-1.8091604,-0.64122134,6
-0.21276855,-0.111450195,-0.062683105,-0.38931298,-0.4274809,-0.17557251,6
-0.21057129,-0.11004639,-0.059204099999999996,0.6793893,-0.9236641,-0.18320611,6
-0.21118164,-0.11151123,-0.058410645,-0.16793893,0.8167939000000001,0.45801526,6
-0.21350098,-0.11444092,-0.05645752,0.8549618,1.4580153,0.54198474,6
-0.21356201,-0.11206055,-0.059814453,0.83206105,0.6946565,-0.23664123,6
-0.21179199,-0.11651611,-0.05633545,1.3740458,0.77099234,2.2595419999999997,6
-0.21405029999999997,-0.11254883,-0.053955078,2.2519082999999998,1.9541985,-0.015267176,6
-0.20861816,-0.11279297,-0.053771973,2.6641220000000003,2.053435,-1.221374,6
-0.20935059,-0.11352539,-0.052978515999999996,1.4351145,1.3587786,0.48091602,6
-0.21020508,-0.11413574,-0.054748535,1.7557251,2.091603,0.17557251,6
-0.21026611,-0.11315918,-0.054748535,1.7786259999999998,0.83206105,1.3358778999999998,6
-0.21179199,-0.11029053,-0.05090332,1.480916,0.9312976999999999,0.08396947,6
-0.20617676,-0.11126709,-0.049621582000000004,2.8549618999999997,0.77862597,0.67175573,6
-0.20404053,-0.11114502,-0.05432129,2.4503817999999997,-0.57251906,0.6488550000000001,6
-0.20788574,-0.11468506,-0.054870605,2.8778627,-0.99236643,-0.55725193,6
-0.2076416,-0.11010742,-0.058776855,2.442748,-1.8778626,-0.43511450000000007,6
-0.20715332,-0.11169433599999999,-0.054626465,6.4198474999999995,0.9541985000000001,-0.6793893,6
-0.21588135,-0.11517334,-0.058166504,8.923664,2.4885497,-0.35877863,6
-0.21228027,-0.11779785,-0.05682373,8.267176,2.8473282,-1.4656489,6
-0.20935059,-0.12005615,-0.05822754,11.381680000000001,4.4351144,-1.8015267,6
-0.20953369,-0.11578369,-0.046569824,11.404580000000001,6.557252,-2.091603,6
-0.20782470000000003,-0.1194458,-0.050109863,6.8244276,4.145038,-0.35114503,6
-0.20819092,-0.11859131,-0.048583984000000004,5.6183205,5.603053599999999,0.0,6
-0.20770264,-0.12133789,-0.050476074,6.671755999999999,4.984732599999999,-0.3740458,6
-0.21453857,-0.11730957,-0.04699707,6.068702,2.0687022,0.4427481,6
-0.20989989999999997,-0.11840819999999999,-0.049804688,2.6793892,0.7633588000000001,2.870229,6
-0.21038818,-0.115722656,-0.050231934000000006,0.5801527,1.1603054,1.2748091000000001,6
-0.20983887,-0.11706543,-0.047058105,0.03816794,0.7099236999999999,2.687023,6
-0.21020508,-0.12408447,-0.04663086,-1.3587786,-1.4122137,0.5114504,6
-0.21112060000000002,-0.11975098,-0.04437256,-2.3969467,0.18320611,0.53435117,6
-0.20800781,-0.12341308599999999,-0.044616699999999995,-3.3282442000000003,-1.610687,0.3740458,6
-0.21551514,-0.11804199,-0.047790527,-3.6335877999999995,-2.7175572,-1.4122137,6
-0.21380615,-0.1182251,-0.05029297,-3.2900763,-0.9160305000000001,-1.961832,6
-0.21661377,-0.12841797,-0.052001953,-4.2671757,-0.6946565,-0.8702290000000001,6
-0.21203613,-0.11840819999999999,-0.050354004,-4.5343513,-0.55725193,-2.0839694,6
-0.21075439999999998,-0.11706543,-0.047973632999999995,-4.4274807,-0.45038167,-3.5725190000000002,6
-0.21075439999999998,-0.11987305,-0.053100586,-4.7099237,0.22900763,-2.7480917000000002,6
-0.21350098,-0.11621094,-0.057739257999999995,-5.664122,-0.48091602,-1.4580153,6
-0.20611572,-0.11273193,-0.04748535,-7.2442746,-2.2900763,-0.5038168,6
-0.22003174,-0.115356445,-0.05078125,-6.5725193,-3.0839694,-0.061068702,6
-0.206604,-0.11462402,-0.049743652,-8.145039,-2.7328243,-0.15267175,6
-0.21789551,-0.11462402,-0.05242919999999999,-7.236641400000001,-2.793893,0.32824427,6
-0.21173096,-0.109191895,-0.04309082,-8.053435,-3.29771,-0.015267176,6
-0.20153809,-0.111206055,-0.051818848,-6.4885497,-3.0610687999999997,1.1145038999999999,6
-0.2020874,-0.11621094,-0.058898926,-6.068702,-2.610687,-1.0152671,6
-0.21795654,-0.11260986,-0.05340576,-5.6106873,-0.8015267,0.71755725,6
-0.20831299,-0.11193848,-0.055236815999999994,-3.793893,-0.061068702,-0.48854962,6
-0.21087646,-0.11248779,-0.057434082000000004,-2.3816792999999996,0.6793893,-0.122137405,6
-0.20806885,-0.115356445,-0.049194336,-1.5725191,1.8396946,1.9083970000000001,6
-0.21142578,-0.10949707,-0.050598145,-2.7099237,1.9312977,0.52671754,6
-0.21368408,-0.11499023400000001,-0.06085205,-2.1221373,0.70229006,0.23664123,6
-0.20977783,-0.11444092,-0.04736328,-2.0458016,1.1984733,-0.28244275,6
-0.20953369,-0.11224365,-0.05291748,-2.5954200000000003,1.4427481000000002,1.038168,6
-0.21154785,-0.11169433599999999,-0.05529785,-2.0076337,-0.129771,0.19847329,6
-0.21160889,-0.1104126,-0.054016113,-1.5801526000000001,0.5038168,0.34351146,6
-0.21276855,-0.11199951,-0.054992676,-1.6335878000000001,-0.053435113,-0.6259541999999999,6
-0.20983887,-0.10986328,-0.05859375,-1.8091604,0.23664123,-0.5954198,6
-0.21234131,-0.11090088,-0.062561035,-1.0839695,0.32061067,-1.2137405,6
-0.21081543,-0.11175537,-0.057983400000000004,-1.4427481000000002,-0.57251906,-0.5114504,6
-0.21215820000000005,-0.10894775400000001,-0.060180664,-0.6793893,0.9541985000000001,0.43511450000000007,6
-0.20922852,-0.11035156,-0.059204099999999996,-0.70229006,1.038168,3.3893129999999996,6
-0.20947266,-0.11065674,-0.05706787,-0.32824427,1.2061069,3.0229008,6
-0.21173096,-0.1116333,-0.057739257999999995,0.4427481,1.5038168,2.3740457999999998,6
-0.21112060000000002,-0.113220215,-0.057922363,0.38167940000000006,1.0534351,2.610687,6
-0.21551514,-0.11767578,-0.057250977,0.6488550000000001,0.8702290000000001,1.6870228999999999,6
-0.21209717,-0.11395264,-0.055725098,-1.6259542,0.67175573,1.3282443000000002,6
-0.20922852,-0.11419678,-0.051574707000000004,-1.5954198999999998,0.5648854999999999,1.6717557,6
-0.20965576,-0.11279297,-0.05706787,-0.38167940000000006,-0.2977099,1.9236640999999999,6
-0.20971679999999995,-0.11187744,-0.055114746,-2.6946564,-1.2824427,0.58778626,6
-0.21014404,-0.111816406,-0.05615234400000001,-2.1450381000000003,-1.9694656000000004,1.0839695,6
-0.20996094,-0.11242676,-0.06188965,-2.6717557999999997,-1.8320610000000002,1.519084,6
-0.21722412,-0.11236572,-0.05255127,-2.2900763,-2.129771,0.28244275,6
-0.21582031,-0.11285400400000001,-0.060913086,-2.2595419999999997,-0.67175573,0.29007635,6
-0.21063232,-0.115234375,-0.05621338,-3.2671757,-2.480916,0.77862597,6
-0.21258545,-0.11383057,-0.06347656,-3.6717557999999997,-1.7786259999999998,1.6030535,6
-0.21929932,-0.11859131,-0.04815674,-2.4045799999999997,0.015267176,-2.2519082999999998,6
-0.21087646,-0.11175537,-0.051757812,-3.7175572,-0.9236641,-0.99236643,6
-0.21276855,-0.111328125,-0.05609131,-3.1755726,-0.5038168,-0.45801526,6
-0.21337889999999998,-0.11212158,-0.05657959,-3.6717557999999997,-1.6946564999999998,0.14503817,6
-0.21563720000000003,-0.10870361,-0.054992676,-5.0229006,-1.3816794,-1.7404580000000003,6
-0.21276855,-0.10827637,-0.05255127,-4.984732599999999,-1.3435115,-2.2595419999999997,6
-0.21051025,-0.11279297,-0.056274414,-4.3206105,-1.4427481000000002,0.9694656999999999,6
-0.21533203,-0.10827637,-0.053955078,-3.9389312000000007,-1.7099236,-1.3969465,6
-0.21099854,-0.111816406,-0.057922363,-3.3587787000000002,-2.9160306,-0.71755725,6
-0.21276855,-0.11236572,-0.054382324,-3.0992367,-2.816794,-1.6030535,6
-0.21966553,-0.11169433599999999,-0.05505371,-3.8244274,-0.43511450000000007,-1.4961832,6
-0.21435547,-0.107543945,-0.058166504,-4.1374044,-2.0687022,-0.48091602,6
-0.21649169999999998,-0.105407715,-0.060302734000000004,-4.3053436,-1.5572518999999998,0.48854962,6
-0.21697998,-0.10375976599999999,-0.055114746,-2.70229,-1.8702290000000001,-0.22900763,6
-0.21228027,-0.11212158,-0.05432129,-1.8931297999999999,-1.6030535,-1.1145038999999999,6
-0.21734619,-0.10925293,-0.05621338,-1.8625953999999998,-1.0534351,0.129771,6
-0.21484375,-0.11035156,-0.055603027,-2.4503817999999997,-0.52671754,0.4427481,6
-0.20880127,-0.10894775400000001,-0.06060791,-1.6183206,-0.114503816,0.20610687,6
-0.2144165,-0.11126709,-0.056396484000000004,-1.6717557,-1.0992366000000002,-0.610687,6
-0.2109375,-0.10473633,-0.056274414,-2.832061,1.5954198999999998,0.2519084,6
-0.21179199,-0.10888672,-0.05322265599999999,-1.221374,-1.0763359,-0.19847329,6
-0.20672607,-0.11206055,-0.053100586,-0.70229006,-0.16030534,0.5496183000000001,6
-0.21154785,-0.105529785,-0.061950684000000006,-0.79389316,-0.97709924,0.007633588,6
-0.20977783,-0.11413574,-0.055358887,-0.6488550000000001,-0.43511450000000007,-0.7099236999999999,6
