Acc_X,Acc_Y,Acc_Z,Gyr_X,Gyr_Y,Gyr_Z,Label
0.23291016,0.08312988,0.07556152,-36.297709999999995,7.59542,-14.908397,12
0.24169922,0.09234619,0.08551025400000001,-19.290077,11.526717,-10.038167999999999,12
0.25683594,0.08502197,0.07489014,-1.038168,12.297709,-5.221374,12
0.237854,0.07922363,0.05419922,23.832062,14.137404,-2.183206,12
0.24505615,0.06799316400000001,0.062438965,39.702290000000005,11.625955000000001,-0.86259544,12
0.23577881,0.064575195,0.057800292999999996,46.78626,8.091603,-6.0458016,12
0.23974610000000002,0.04437256,0.0635376,47.778625,5.259542,-11.282442999999999,12
0.24664307,0.050720215,0.11022949,41.374046,3.129771,-15.748092000000002,12
0.24487305,0.038024902,0.049438477,33.625954,0.9541985000000001,-17.786259,12
0.23626709,0.034362792999999996,0.09045410000000001,20.702289999999998,-4.809159999999999,-17.38168,12
0.22906494,0.04925537,0.07727051,5.2671757,-6.8778625,-22.099237,12
0.23687744,0.034301757999999995,0.08264160000000001,-0.99236643,-7.0229006,-19.709923,12
0.24340820000000005,0.037109375,0.08135986,-2.1374047000000003,-3.3969467000000004,-14.954199,12
0.23461914,0.038879395,0.09265137,0.03816794,0.65648854,-5.0610685,12
0.21704102,0.041992188,0.06933594,3.2519082999999998,1.2748091000000001,-1.6259542,12
0.22814941,0.040100098,0.08361816400000001,3.7557251000000003,2.3282442000000003,4.4351144,12
0.22784424,0.04864502,0.08441162,3.5419848,4.0610685,9.450381,12
0.23907470000000003,0.048461914,0.09552002,4.10687,5.2824425999999995,12.419847500000001,12
0.22821045,0.040039062,0.06719971,1.389313,6.2900763,14.992367000000002,12
0.23126220000000003,0.048828125,0.092285156,-1.5343511,5.6946564,15.946565,12
0.24261475,0.05078125,0.08972168,-4.0839696000000005,4.778626,13.984732999999999,12
0.23278809,0.05596924,0.11138916,-6.763358599999999,2.1221373,10.198473,12
0.24182129,0.05090332,0.06768799,-8.78626,2.3282442000000003,7.0229006,12
0.23809814,0.061401367000000005,0.08416748,-9.374044999999999,2.7480917000000002,4.0458016,12
0.23077393,0.060180664,0.06829834,-9.328244,1.3435115,1.3587786,12
0.23828125,0.05419922,0.078186035,-11.351144999999999,-0.4427481,-2.0839694,12
0.24572754,0.052856445,0.06628418,-11.0,-0.5954198,-5.9541984,12
0.22814941,0.06402588,0.09710693,-12.068703,-3.3053436,-6.9923663000000005,12
0.23834229,0.050231934000000006,0.08142089999999999,-11.114504,-2.3740457999999998,-8.236641,12
0.24475098,0.07092285,0.08892822,-8.19084,-1.4732825,-8.0992365,12
0.23590088,0.05242919999999999,0.10687256,-3.1450381000000003,-0.045801528,-8.633588,12
0.23675537,0.039978027,0.08636474599999999,0.31297709999999995,0.259542,-3.7328242999999994,12
0.22003174,0.04321289,0.103637695,2.4122138,1.1221374,-6.1755724,12
0.23059082,0.046691895,0.08190918,3.9923663,3.6717557999999997,-9.061069,12
0.22644043,0.04144287,0.09454346,4.603053599999999,3.1755726,-7.335878,12
0.24066162,0.042663574,0.08892822,1.7786259999999998,3.6564887,-7.969465700000001,12
0.24420166,0.045776367000000005,0.10925293,1.2748091000000001,2.1374047000000003,-10.137404,12
0.24645996,0.03942871,0.09405517599999999,-2.9007633,2.038168,-10.038167999999999,12
0.23498535,0.036010742000000005,0.051086426,-4.6183205,-0.610687,-5.4503818,12
0.23364258,0.05718994,0.08160400400000001,-8.381680000000001,-1.70229,-6.9160304,12
0.24176025,0.039123535,0.06817627,-9.2595415,-2.3740457999999998,-1.8091604,12
0.23944092,0.049926757999999995,0.075683594,-9.732824,-0.8396947,-1.4732825,12
0.24182129,0.050598145,0.09411621,-9.320611,-2.6335877999999995,1.4580153,12
0.23712158,0.04827881,0.085876465,-9.030535,-3.534351,3.129771,12
0.22991943,0.045043945,0.078063965,-9.603053,-2.0229008,3.9541983999999997,12
0.23651123,0.044128417999999996,0.08880615,-8.21374,-2.0687022,0.96183205,12
0.2456665,0.05218506,0.07641601599999999,-7.8549619999999996,-1.6183206,1.5877863,12
0.24389648,0.05871582,0.07299805,-8.335877,-1.0305344,2.206107,12
0.23284912,0.052612305,0.07971191400000001,-6.1603055,-0.54198474,-1.6030535,12
0.23309326,0.049926757999999995,0.07647705,-6.4274807,-2.5419848,0.83206105,12
0.23901367,0.05657959,0.072143555,-5.5343513,-1.7786259999999998,-2.1603053,12
0.23046875,0.043640137,0.07537842,-4.9007635,-1.1984733,-1.6564884999999998,12
0.24957275,0.051391599999999996,0.11157226599999999,-2.038168,-0.77862597,-2.5496182000000003,12
0.22583008,0.056518555,0.07232666,-0.36641222,-0.48091602,-0.7557252,12
0.23175049,0.047851562,0.087768555,0.5496183000000001,-1.0229008,-3.0992367,12
0.24505615,0.044006348,0.10253906,-0.091603056,0.030534351,-3.0076337000000004,12
0.23260498,0.059814453,0.08264160000000001,0.48091602,-0.07633588,-3.3206108,12
0.23657227,0.044067382999999995,0.03894043,0.2977099,-0.8778626,-4.236641400000001,12
0.22668457,0.05078125,0.06317139,0.41984734,-0.90839696,-2.7862597,12
0.22595215,0.048950195,0.0881958,2.6564887,1.4198473999999999,-2.1984732000000005,12
0.24176025,0.06024169999999999,0.052001953,2.2519082999999998,1.3358778999999998,-0.90076333,12
0.23822021,0.051635742000000005,0.085876465,2.961832,-0.9694656999999999,-1.4503816,12
0.22912598,0.054870605,0.062683105,0.77862597,1.2671756,-1.7786259999999998,12
0.2364502,0.03955078,0.07299805,0.64122134,-0.18320611,-1.8854961,12
0.22912598,0.05041504,0.056640625,-1.1068702,0.79389316,-0.610687,12
0.24462889999999998,0.040405273,0.055664062,-1.1526718,1.0076336,-1.2061069,12
0.24743652,0.051757812,0.07366943,-1.2366412,-0.8549618,-1.1297709999999999,12
0.23419189999999998,0.04748535,0.08288574,-2.1755726,-0.9312976999999999,-0.79389316,12
0.22552489999999997,0.05908203,0.060302734000000004,-3.4198472,-0.15267175,-0.16793893,12
0.23095703,0.051208496,0.06427002,-0.71755725,0.41221374,0.31297709999999995,12
0.23370361,0.053527832000000004,0.08251953,1.4351145,-0.22900763,0.16793893,12
0.23266602,0.049682617000000005,0.07446289,-0.90076333,1.5267175,1.2900764,12
0.22973633,0.06085205,0.07757568,0.53435117,2.9312978,-0.9694656999999999,12
0.23620605,0.054626465,0.06695557,0.16793893,1.6564884999999998,-1.1374046,12
0.22705078,0.049133300000000005,0.09851074,0.71755725,0.10687023,-1.6030535,12
0.24920654,0.043884277,0.08068848,-2.5954200000000003,1.0534351,-3.4122138,12
0.22454834,0.04888916,0.07452392599999999,-3.076336,1.0,-2.5877862,12
0.24700928,0.060180664,0.07379150400000001,-3.2519082999999998,0.129771,-3.0839694,12
0.24639893,0.050354004,0.07385254,-4.7175574000000005,0.23664123,-1.7251908999999999,12
0.24487305,0.04925537,0.100097656,-2.8778627,0.41221374,-0.26717559,12
0.2387085,0.034484863,0.09295654,-2.534351,1.1526718,-1.3282443000000002,12
0.24310303,0.04309082,0.06597900400000001,-1.1374046,1.7557251,-1.6564884999999998,12
0.23760986,0.054748535,0.07556152,-1.7557251,1.0,0.6183206,12
0.23510742,0.04675293,0.08868408,-1.1221374,0.32824427,-2.1603053,12
0.24401855,0.05810547,0.06707764,0.030534351,0.45038167,-1.0,12
0.23944092,0.051330565999999994,0.0925293,1.0229008,-0.08396947,-1.4122137,12
0.24572754,0.057983400000000004,0.07641601599999999,0.33587787,0.99236643,0.39694658,12
0.22967529999999997,0.05328369,0.08709717,0.3053435,1.6717557,1.091603,12
0.23181152,0.047729492000000005,0.07916260000000001,0.9847328000000002,1.6793894,0.16793893,12
0.24414062,0.048828125,0.09155273400000001,0.9160305000000001,1.0305344,1.8244275,12
0.21429443,0.04058838,0.09564209,1.3740458,0.35877863,2.2900763,12
0.23675537,0.042663574,0.08111572,-0.96183205,0.9160305000000001,-0.28244275,12
0.24200439999999998,0.05041504,0.101623535,0.3053435,2.0610688,-1.3664121999999999,12
0.25134277,0.04931640599999999,0.06811523400000001,-0.07633588,2.5038167999999996,-0.99236643,12
0.23931885,0.054626465,0.08325195,0.5496183000000001,2.8015267999999995,-1.0992366000000002,12
0.24713135,0.050476074,0.06927489999999999,1.4045801000000002,2.4961832000000004,0.77099234,12
0.2376709,0.04748535,0.06951904,0.4274809,3.4351146,1.6717557,12
0.24768066,0.039794922,0.09344482400000001,0.70229006,1.6259542,0.7480916,12
0.23040771,0.05493164,0.06201172,1.0534351,2.1603053,0.77099234,12
0.22912598,0.055847167999999996,0.08093262,-0.49618322,2.389313,-1.4580153,12
0.23937988,0.049194336,0.09057617,-0.6793893,1.6259542,-1.1450381,12
0.24578857,0.05670166,0.09234619,0.9847328000000002,1.5572518999999998,-2.0152671000000004,12
0.23168945,0.05267334,0.0881958,0.54198474,-0.15267175,-0.90076333,12
0.23321533,0.057006836,0.11285400400000001,0.57251906,1.8625953999999998,-1.6412214,12
0.25329589999999996,0.049438477,0.06750488,2.1603053,1.6870228999999999,-0.49618322,12
0.24212646,0.04486084,0.06225586,0.90839696,1.6793894,0.122137405,12
0.22485352,0.05407715,0.09576416,2.3206108,2.3816792999999996,-1.8702290000000001,12
0.23120117,0.044677734000000004,0.08996582,1.6641221000000002,2.923664,-1.9312977,12
0.22918701,0.044189453,0.06481933599999999,0.7557252,2.6030533,-1.1679389999999998,12
0.24603271,0.04095459,0.08886719,-0.2977099,3.4885497,-3.5648854,12
0.23205566,0.04119873,0.06945801,-1.2061069,2.29771,-2.5419848,12
0.22143555,0.035705566,0.07983398400000001,-3.206107,1.519084,-2.091603,12
0.23718262,0.053527832000000004,0.06506348,-3.2442749,0.519084,-0.53435117,12
0.23260498,0.057434082000000004,0.07128906,-3.9541983999999997,1.4503816,-1.5038168,12
0.23651123,0.037719727,0.0769043,-4.3206105,0.8167939000000001,1.5114504,12
0.23864746,0.041870117000000005,0.09271239999999999,-4.1755724,0.9312976999999999,-1.8244275,12
0.24969482,0.0390625,0.06896973,-5.0839696,-0.66412216,-1.6870228999999999,12
0.23468018,0.050720215,0.06530762,-4.068702,0.20610687,-2.8091602000000004,12
0.2387085,0.051879882999999995,0.06829834,-3.6564887,0.8244275,-3.793893,12
0.23706055,0.04486084,0.08178711,-3.0305343,0.9847328000000002,-3.038168,12
0.23980713,0.06085205,0.09997558599999999,-4.183206,-0.34351146,-4.343511599999999,12
0.2442627,0.0501709,0.067871094,-4.7099237,1.091603,-2.793893,12
0.24066162,0.050354004,0.06213379,-2.6717557999999997,1.5801526000000001,-5.6488547,12
0.23791504,0.044616699999999995,0.06738281,-3.7099237,1.5954198999999998,-4.854962,12
0.21990967,0.049804688,0.07452392599999999,-3.9160306000000005,0.34351146,-6.038168,12
0.23034668,0.047973632999999995,0.07843017599999999,-2.5267177000000003,0.48091602,-4.5038165999999995,12
0.23480225,0.047180176,0.04345703,-2.832061,-0.34351146,-5.3893127,12
0.24090576,0.06579589999999999,0.06549072,-1.6793894,-0.32061067,-2.687023,12
0.234375,0.053344727,0.08001709,-0.24427481,1.961832,-2.427481,12
0.22937012,0.05810547,0.08282471,-0.9236641,0.36641222,-2.1908397999999996,12
0.22827148,0.049865723,0.07305908,0.40458015,2.6259542000000002,-2.091603,12
0.24536133,0.050354004,0.06530762,2.3282442000000003,2.7099237,-0.77099234,12
0.22198486,0.048583984000000004,0.08538818,2.0152671000000004,2.2671757,0.23664123,12
0.22943115,0.051513672,0.06799316400000001,1.8167938999999997,2.6946564,-1.480916,12
0.25494385,0.054138184000000006,0.07653808599999999,2.0229008,0.90076333,-1.1068702,12
0.22436523,0.04541015599999999,0.07922363,1.6717557,3.7404580000000003,-1.6335878000000001,12
0.23797607,0.047180176,0.05895996,0.9389313,1.9236640999999999,-3.038168,12
0.24212646,0.044128417999999996,0.08050537,-0.34351146,0.015267176,-3.351145,12
0.23553467,0.047912598,0.07135010000000001,0.259542,-0.610687,-1.2977100000000001,12
0.23071289,0.045288086,0.06738281,0.8778626,-0.6259541999999999,-0.53435117,12
0.24633789,0.040527344,0.08374023400000001,0.99236643,-0.519084,-0.46564886,12
0.24066162,0.04547119,0.09161377,-0.24427481,1.3969465,0.022900764,12
0.23577881,0.038269042999999996,0.09320068,-0.45038167,0.40458015,0.2519084,12
0.23248291,0.05859375,0.07946777,-0.84732825,0.57251906,3.648855,12
0.258667,0.041809082000000004,0.05871582,-2.1603053,0.83206105,2.0229008,12
0.24633789,0.04638672,0.05340576,-3.7862597,0.8167939000000001,-0.18320611,12
0.22772217,0.05126953,0.0960083,-4.2061067,-0.9160305000000001,0.29007635,12
0.22271729,0.049133300000000005,0.10760498,-3.3358779999999997,1.5572518999999998,-1.961832,12
0.22076416,0.043395996,0.0758667,-4.809159999999999,0.52671754,-0.4274809,12
0.24285889,0.04156494,0.06555176,-5.3893127,0.045801528,-0.5114504,12
0.24066162,0.05291748,0.07592773400000001,-7.7557254,0.41984734,-2.3740457999999998,12
0.24890137,0.038269042999999996,0.07220459,-10.832061,0.5801527,-3.3282442000000003,12
0.24438477,0.055541992000000005,0.07159424,-8.183207000000001,2.4732822999999997,-1.5496184,12
0.22607422,0.05206299,0.095703125,-5.7328243,2.3587787000000002,-0.77862597,12
0.24267578,0.05731201,0.08142089999999999,-4.1679387000000006,0.7633588000000001,-0.19847329,12
0.23962402,0.04425049,0.12487793,-2.8778627,1.2137405,1.2442749,12
0.23468018,0.049926757999999995,0.07128906,0.14503817,2.3816792999999996,1.4351145,12
0.23632812,0.053588867000000005,0.085876465,2.2824428,3.3053436,3.946565,12
0.25408936,0.055786132999999995,0.06762695,1.8854961,1.389313,4.740458,12
0.24774169999999998,0.05633545,0.05432129,1.7480916000000002,0.22900763,4.1221375,12
0.23156738,0.045166015999999996,0.062194824,1.0305344,0.16030534,-2.9389312000000003,12
0.23602295,0.049194336,0.07434082,0.89312977,-0.48091602,-4.0229006,12
0.22839355,0.038330078,0.07318115,0.6335878,1.351145,-5.6412214999999994,12
0.24829102,0.049072265999999996,0.074035645,3.1450381000000003,1.091603,-3.6793892,12
0.22247314,0.047912598,0.06304932,5.4885497,-0.14503817,-3.1374047000000003,12
0.24090576,0.053344727,0.06933594,5.4351144,1.7557251,-1.7709924,12
0.23425293,0.040161132999999995,0.07800293,5.526717700000001,4.2519083,-1.2824427,12
0.23211669999999998,0.046081542999999996,0.07556152,6.70229,4.10687,0.39694658,12
0.22998047,0.045043945,0.08709717,5.778626,4.4503818,-1.038168,12
0.22259521,0.04437256,0.07897949,4.068702,1.3435115,-1.221374,12
0.23730469,0.044006348,0.08117676,1.7862595000000001,1.3664121999999999,0.34351146,12
0.24804688,0.05065918,0.052856445,3.3282442000000003,1.4961832,-2.6183207000000004,12
0.24951172,0.046447754,0.05682373,1.6641221000000002,1.0763359,-0.90076333,12
0.24353027,0.043029785,0.06774902,2.1984732000000005,0.23664123,0.10687023,12
0.24279785,0.044799805,0.07312012,0.8091603,-0.10687023,-1.8702290000000001,12
0.22692871,0.048828125,0.07397461,0.9541985000000001,-0.77862597,-1.351145,12
0.24188232,0.04925537,0.09155273400000001,1.5954198999999998,-1.1908396,-2.4045799999999997,12
0.24182129,0.050598145,0.0647583,0.38931298,1.1221374,-3.206107,12
0.23864746,0.05340576,0.06921387,1.5648855,0.70229006,-4.3816795,12
0.23846436,0.05303955,0.07067871,0.5954198,1.7709924,-2.793893,12
0.23712158,0.047851562,0.057556152,0.4274809,1.5725191,-3.8015267999999995,12
0.25250244,0.04095459,0.12139892599999999,0.17557251,0.3053435,-4.5343513,12
0.23260498,0.04638672,0.06921387,-1.2748091000000001,1.2748091000000001,-3.4427480000000004,12
0.23925781,0.051086426,0.07470703,-0.6335878,-0.29007635,-3.0229008,12
0.23553467,0.050842285,0.051940917999999996,-1.091603,0.7480916,-1.9312977,12
0.24182129,0.048706055,0.07080078,-2.2442749,-0.55725193,-2.946565,12
0.23382568,0.03277588,0.08245849599999999,-2.9312978,-0.77099234,1.2671756,12
0.23925781,0.049072265999999996,0.08203125,-2.3435113,0.41221374,-1.519084,12
0.24682617,0.04168701,0.079589844,-1.221374,1.1679389999999998,0.89312977,12
0.23608398,0.037109375,0.062194824,-0.38167940000000006,4.740458,4.5343513,12
0.24053955,0.047912598,0.07183838,-0.41221374,3.4503817999999997,8.648855000000001,12
0.25079346,0.041992188,0.09094238,-0.89312977,1.6717557,7.4198475,12
0.26574707,0.043762207000000004,0.06640625,-4.3206105,-2.3740457999999998,3.946565,12
0.24847412,0.04937744,0.083862305,-5.9389315,-4.259542,-2.7480917000000002,12
0.25720215,0.04864502,0.05682373,-9.9007635,-7.4503818,-7.412214,12
0.25506592,0.05029297,0.07495117,-9.725191,-6.152672,-9.580152499999999,12
0.22625732,0.03857422,0.07647705,-10.877863,-5.2061067,-13.206107000000001,12
0.23547363,0.04876709,0.06854248,-12.618319999999999,-4.740458,-11.687023,12
0.22027588,0.047668457000000004,0.0625,-9.954199000000001,-1.9465648999999998,-8.580152499999999,12
0.21081543,0.045898438,0.068359375,-9.183207000000001,0.5801527,-6.6335880000000005,12
0.21746826,0.04321289,0.07250976599999999,-9.687023,3.0305343,-5.412214,12
0.22979736,0.04119873,0.07971191400000001,-9.2595415,3.946565,-1.8473282,12
0.22778320000000005,0.058288574,0.06359863,-9.251908,5.4198474999999995,-1.4274809,12
0.22967529999999997,0.05114746,0.09552002,-4.4885497,6.480916000000001,3.7480917000000002,12
0.24279785,0.049987792999999996,0.091674805,-1.2442749,4.519083999999999,3.3816792999999996,12
0.24707031,0.048828125,0.06817627,-1.1374046,4.7557254,3.4732822999999997,12
0.24926758,0.059936523,0.06719971,-2.129771,3.2519082999999998,-1.4503816,12
0.24371338,0.057617188,0.085754395,-4.0076336999999995,1.5114504,-2.923664,12
0.24530029999999997,0.050354004,0.07641601599999999,-5.343511599999999,-0.41984734,-6.0610685,12
0.23284912,0.051330565999999994,0.08282471,-2.2671757,0.4274809,-7.458015400000001,12
0.23809814,0.06121826,0.07543945,0.2519084,1.519084,-10.160305000000001,12
0.22857666,0.051391599999999996,0.07916260000000001,2.9160306,3.076336,-5.374046,12
0.23193360000000002,0.05810547,0.09942627,5.603053599999999,3.2442749,-6.80916,12
0.23162842,0.055603027,0.06628418,7.10687,5.366412,-7.541984599999999,12
0.22882080000000002,0.038146973,0.07147217,8.206107000000001,4.6793895,-8.763359,12
0.24713135,0.049743652,0.08050537,6.5801525,3.8778627,-7.8549619999999996,12
0.26885986,0.040405273,0.07531738,4.5496182,5.3893127,-6.3129773,12
0.25030518,0.04309082,0.07519531,3.29771,3.3587787000000002,-4.221374,12
0.23614502,0.03277588,0.06701660000000001,-2.2290077,1.0687023,-1.2366412,12
0.24005127,0.039855957000000004,0.061157227,-1.7786259999999998,-0.7633588000000001,-1.1221374,12
0.23718262,0.04949951,0.06939697,-3.465649,-0.14503817,2.946565,12
0.24182129,0.04437256,0.07244873,-3.3969467000000004,0.70229006,4.053435299999999,12
0.21960449,0.040283203,0.07116699,-3.7404580000000003,2.6183207000000004,6.4351144,12
0.23974610000000002,0.040771484,0.08648682,-5.3206105,2.0992367,7.816794,12
0.23175049,0.036987305,0.08618164,-7.9770994,2.9007633,5.961832,12
0.24249268,0.057678223,0.07171631,-10.671756,0.5496183000000001,3.9312977999999994,12
0.23370361,0.04559326,0.10021973,-9.931297,0.48854962,1.5572518999999998,12
0.23541260000000003,0.04626465,0.07092285,-12.045800999999999,0.83206105,0.6946565,12
0.24682617,0.044677734000000004,0.07244873,-11.389313000000001,0.06870229,-2.2748091,12
0.24078369,0.05291748,0.07495117,-8.885496,-0.22900763,-2.2748091,12
0.22186279999999997,0.046203613,0.09326172,-8.175572,-1.1297709999999999,-2.9312978,12
0.23413086,0.050964355,0.06829834,-8.770992,-0.64122134,-3.4274809999999998,12
0.23358154,0.049926757999999995,0.07086182,-7.557252,-0.35877863,-3.1450381000000003,12
0.23822021,0.043762207000000004,0.08062744,-7.9923663000000005,-1.2900764,-4.961832,12
0.24627686,0.05645752,0.05834961,-7.70229,-0.26717559,-3.7175572,12
0.24401855,0.043701172,0.072387695,-7.40458,-2.5419848,-3.4885497,12
0.23114014,0.05810547,0.06817627,-7.709923700000001,-1.1755725000000001,-5.1221375,12
0.24572754,0.052001953,0.13336182,-6.2290077,-2.9770992,-5.328244000000001,12
0.23693848,0.048706055,0.089660645,-3.7328242999999994,-1.3358778999999998,-4.0458016,12
0.23297119,0.05102539,0.08764648400000001,-2.7633588,-1.8396946,-1.5496184,12
0.24627686,0.035339355,0.06988525400000001,-1.3206106000000002,-0.7480916,-0.8015267,12
0.23876953,0.04248047,0.06927489999999999,-1.5954198999999998,-0.7251908,-1.6717557,12
0.23620605,0.042907715,0.064941406,0.35114503,-0.43511450000000007,-0.77862597,12
0.23815918,0.044555664,0.07714844,-2.2824428,-1.4503816,0.36641222,12
0.22583008,0.04345703,0.08496094,-1.038168,-2.389313,-0.35877863,12
0.24322510000000003,0.05267334,0.06768799,-2.427481,-1.3740458,-1.0305344,12
0.24896239999999997,0.03857422,0.08404541,-1.5877863,-0.9541985000000001,1.2748091000000001,12
0.24511719,0.041992188,0.07128906,0.122137405,0.6870229,-0.610687,12
0.24853516,0.051940917999999996,0.06744385,1.2519083999999998,-0.4427481,1.9923664,12
0.24798584,0.053527832000000004,0.09710693,1.4045801000000002,0.34351146,1.8396946,12
0.22497559,0.054992676,0.072143555,3.5038167999999996,-0.10687023,1.2977100000000001,12
0.23309326,0.044189453,0.074157715,3.3129769999999996,-0.7633588000000001,1.6870228999999999,12
0.23651123,0.044616699999999995,0.047607422,1.3969465,-0.13740458,0.58778626,12
0.23834229,0.04559326,0.066345215,2.3511450000000003,1.3587786,-1.519084,12
0.25,0.04272461,0.09826660000000001,0.34351146,1.1374046,-1.1679389999999998,12
0.24243164,0.04827881,0.05291748,0.8091603,-0.6183206,-3.70229,12
0.24609375,0.04949951,0.10113525400000001,0.8091603,1.519084,-2.7175572,12
0.24633789,0.05609131,0.08825683599999999,3.1603053,1.2290076,-1.5725191,12
0.23620605,0.03527832,0.09814453,2.9389312000000003,1.4580153,-3.3358779999999997,12
0.24890137,0.037231445,0.086120605,3.1526718,0.18320611,-2.557252,12
0.23376465,0.04321289,0.07952881,2.1374047000000003,1.3053435,-1.2442749,12
0.22943115,0.038085938,0.06573486,2.610687,1.1526718,-2.1984732000000005,12
0.24114989999999997,0.038879395,0.058410645,0.90076333,0.21374045,-1.1297709999999999,12
0.23724365,0.047180176,0.07562256,0.7099236999999999,0.71755725,0.18320611,12
0.23272705,0.05596924,0.11230469,0.26717559,0.83206105,-0.061068702,12
0.23046875,0.038146973,0.08941650400000001,1.1221374,3.3969467000000004,-1.8396946,12
0.23217773,0.042175292999999996,0.061767578,1.4122137,1.3053435,-2.2595419999999997,12
0.24511719,0.050354004,0.07232666,0.86259544,1.8473282,-2.8549618999999997,12
0.22930908,0.061279297,0.080566406,1.3664121999999999,0.57251906,0.015267176,12
0.23553467,0.04888916,0.07092285,1.3816794,0.66412216,-0.40458015,12
0.24322510000000003,0.049194336,0.08245849599999999,1.4351145,1.3587786,-1.9389313000000001,12
0.22930908,0.057739257999999995,0.078063965,1.3358778999999998,2.5267177000000003,-1.9847328999999998,12
0.23413086,0.049865723,0.08526611,2.167939,2.0839694,-1.5038168,12
0.24395752,0.04473877,0.06738281,1.038168,1.9236640999999999,-0.48091602,12
0.23101807,0.041259766,0.07867432,2.870229,1.3664121999999999,-1.9312977,12
0.22607422,0.047668457000000004,0.060791015999999996,3.6030532999999996,1.8778626,-0.41984734,12
0.23657227,0.04156494,0.07318115,2.8473282,2.5648854,0.21374045,12
0.24676514,0.061950684000000006,0.06829834,2.2519082999999998,1.5801526000000001,-0.030534351,12
0.23620605,0.045043945,0.07281494,3.2442749,2.610687,0.77099234,12
0.23187256,0.05328369,0.08117676,2.5267177000000003,3.3053436,2.9541984,12
0.24371338,0.041992188,0.066223145,3.5038167999999996,2.6259542000000002,4.3587785000000006,12
0.22265625,0.034179688,0.07379150400000001,4.2824425999999995,2.29771,4.152672,12
0.23260498,0.042114257999999995,0.05517578,4.4885497,2.038168,5.328244000000001,12
0.23925781,0.043518065999999994,0.07855224599999999,3.5496182000000003,5.1755724,5.068702,12
0.23291016,0.058044434000000006,0.09411621,7.0,5.7938933,9.885496,12
0.23571777,0.05218506,0.08166504,7.847328,7.10687,10.145039,12
0.21759033,0.05822754,0.07696533,9.267176,7.091603299999999,10.664123,12
0.21362305,0.05871582,0.11871338,12.114504,10.229008,10.473283,12
0.22454834,0.06829834,0.06408691400000001,17.625954,13.137404,13.526717000000001,12
0.23266602,0.057495117000000005,0.06842041,24.480917,16.839695000000003,15.847328,12
0.24615479,0.06292724599999999,0.06732178,28.198473,17.740458,13.969465,12
0.22241211,0.064575195,0.08074951,30.91603,21.633587,11.427481,12
0.23297119,0.062561035,-0.011169433999999999,-6.664122,0.33587787,-8.015267,12
0.23913574,0.07318115,-0.01171875,-1.7328244,1.0610687,-6.7251906,12
0.24401855,0.06359863,-0.004760742,-1.1297709999999999,6.40458,5.778626,12
0.23547363,0.08392334,0.02911377,-2.1984732000000005,2.1068702,12.038167999999999,12
0.24414062,0.05682373,0.0009765625,-5.931298,-4.671755999999999,12.946565,12
0.25872803,0.06597900400000001,-0.012268066000000001,-4.1984735,-8.068703,7.6106872999999995,12
0.23937988,0.06005859400000001,0.0040893555,0.3053435,-2.793893,15.816792999999999,12
0.24694824,0.0546875,-0.019714355,-0.122137405,-2.816794,12.587786999999999,12
0.24676514,0.0501709,-0.018066406,-2.7633588,-5.8320612999999994,4.9923663000000005,12
0.23419189999999998,0.047302246,-0.0056152343999999995,-5.664122,-2.519084,2.6412212999999998,12
0.24737549,0.057373047,-0.012756348,-7.2519083,-6.9541984,4.0992365,12
0.25183105,0.04650879,-0.021240234,-5.374046,-7.2137402999999996,10.946565,12
0.23803711,0.036499023,-0.014038086000000002,-4.809159999999999,-5.1603055,9.282442999999999,12
0.25616455,0.039978027,-0.010131836,-5.366412,-6.8778625,5.5648856,12
0.2576294,0.054260254,-0.020507812,-4.923664,-7.328244000000001,3.3282442000000003,12
0.24023438,0.056274414,-0.02154541,-4.984732599999999,-4.931298,4.671755999999999,12
0.25280762,0.051635742000000005,-0.018249512,-2.2900763,-6.068702,4.053435299999999,12
0.23883057,0.052978515999999996,0.00012207030000000001,-1.4427481000000002,-4.40458,4.1603055,12
0.24432373,0.047302246,-0.0065307617,-3.038168,-5.9923663000000005,3.2748091,12
0.25354004,0.044677734000000004,-0.008850098,-3.7099237,-4.8778625,5.3129773,12
0.23937988,0.039611816,-0.0013427734,-2.8778627,-6.961832000000001,4.519083999999999,12
0.25061035,0.040039062,-0.008850098,-4.0839696000000005,-4.374046,1.8473282,12
0.2456665,0.04156494,-0.015625,-3.2290077,-3.5114503,0.9694656999999999,12
0.2506714,0.035583496,-0.021240234,-3.7862597,-0.6870229,-3.221374,12
0.23742676,0.046813965,-0.020080566,-4.7938933,-0.053435113,-5.7480917,12
0.24420166,0.04034424,-0.02734375,-6.2061067,1.5038168,-5.854962,12
0.24536133,0.047973632999999995,-0.03717041,-4.557252,3.6870230000000004,-7.5496182,12
0.25012207,0.04736328,-0.033935547,0.18320611,3.221374,-8.396947,12
0.24810791,0.04437256,-0.012207031,5.152672,5.40458,-10.022901,12
0.23944092,0.041259766,-0.014465332,5.656488400000001,3.3358779999999997,-11.0992365,12
0.24609375,0.04498291,-0.012390136999999999,4.4351144,-0.9389313,-14.969465,12
0.25164795,0.056030273,-0.034179688,3.1526718,4.2137402999999996,-12.908397,12
0.26287842,0.059814453,-0.02709961,2.572519,7.412214,-11.648855000000001,12
0.24841309,0.06701660000000001,-0.015991211,2.4580152,5.190840000000001,-4.1374044,12
0.24694824,0.057678223,-0.019897461,1.9312977,1.1603054,2.427481,12
0.24456787,0.05493164,-0.015014648,1.0610687,-3.2748091,2.8244274,12
0.24389648,0.055419922,-0.0390625,-1.2061069,-5.374046,5.4351144,12
0.25543213,0.06011963,-0.036987305,-3.4198472,-5.1755724,3.5267177000000003,12
0.23608398,0.058044434000000006,-0.038208007999999995,-2.5267177000000003,-2.29771,6.59542,12
0.24822998,0.050720215,-0.020935059,-1.70229,-3.5725190000000002,6.2671757,12
0.23480225,0.043640137,-0.04083252,-1.7175573,-3.1221373,7.0152674,12
0.24505615,0.04437256,-0.028747559,-0.7251908,-2.9847328999999996,7.0229006,12
0.24560547,0.044006348,-0.026000977,-0.740458,-2.7709923,4.1755724,12
0.25128174,0.043884277,-0.026000977,-1.6870228999999999,-3.3435113,1.4351145,12
0.24084473,0.05657959,-0.025634766,-4.4351144,1.2442749,-0.18320611,12
0.24066162,0.037841797,-0.028869628999999997,-5.9389315,2.946565,-5.0992365,12
0.23699951,0.055419922,-0.043518065999999994,-1.1068702,10.801527,-5.0076336999999995,12
0.24688720000000003,0.061828613,-0.036865234,5.9770994,10.580152499999999,1.6412214,12
0.24969482,0.05102539,-0.01373291,5.335878,3.6335877999999995,6.908396700000001,12
0.23809814,0.039367676000000004,0.0014038085999999999,0.19083970000000003,-2.9007633,3.8854961,12
0.2442627,0.031921387,-0.032043457000000004,-4.5496182,-8.503817,2.442748,12
0.24517822,0.049194336,-0.03668213,-7.9389315,-4.923664,-2.0,12
0.2522583,0.04473877,-0.028930664,-3.2137403,3.5572519999999996,-3.4961832000000004,12
0.23956299,0.04071045,-0.021972656,-3.0152671000000004,6.793893300000001,-6.8244276,12
0.2501831,0.038208007999999995,-0.026062012000000002,-1.0076336,11.106871,-10.839694999999999,12
0.24774169999999998,0.061462402,-0.010620117,4.4885497,12.557252,-11.183207000000001,12
0.23675537,0.051574707000000004,-0.010681152,5.2290077,7.4503818,0.9389313,12
0.25061035,0.055664062,-0.002746582,-0.5114504,-3.7251909,2.5267177000000003,12
0.25891113,0.059814453,-0.023620605,-2.7251909,-8.320611,1.4122137,12
0.24902344,0.042236328,-0.028259277000000003,-5.343511599999999,-7.1450380000000004,0.77862597,12
0.24450684,0.05682373,-0.02734375,-3.40458,-3.1908397999999996,-3.351145,12
0.25299072,0.04840088,-0.025024414,-1.2824427,5.0992365,-3.3206108,12
0.24584961,0.03302002,-0.02758789,2.0,6.0839696,-6.3129773,12
0.2421875,0.04699707,-0.03527832,2.2671757,8.427481,-8.7786255,12
0.23980713,0.05987549,-0.016418457,1.7709924,5.4274807,-6.557252,12
0.23925781,0.05432129,-0.016662598,0.43511450000000007,2.4503817999999997,-4.40458,12
0.25543213,0.06311035,-0.016540527,0.35114503,1.2748091000000001,-0.7099236999999999,12
0.25421143,0.04248047,-0.031555176000000004,-0.2977099,-0.9236641,-2.5648854,12
0.24444580000000002,0.05621338,-0.014221191000000001,-2.4351146,-1.9312977,-1.6717557,12
0.23663330000000002,0.055419922,-0.026367188,-1.0687023,-1.0076336,-2.0839694,12
0.24029541,0.03894043,-0.03186035,0.7480916,0.71755725,-1.1984733,12
0.24737549,0.049560547,-0.01965332,-0.3740458,0.35877863,-1.2671756,12
0.25012207,0.057983400000000004,-0.016357422,-0.45801526,0.38167940000000006,-1.5419847,12
0.24584961,0.051635742000000005,-0.015625,-1.221374,1.2671756,-3.5267177000000003,12
0.24664307,0.051940917999999996,-0.023925781,-2.206107,3.6412212999999998,-3.8473281999999998,12
0.23730469,0.05694580000000001,-0.016845703,-0.67175573,5.076336,-0.79389316,12
0.26098633,0.049865723,-0.014038086000000002,-1.3282443000000002,0.32824427,-0.5496183000000001,12
0.24029541,0.053955078,-0.009643555,-0.41221374,-3.40458,-0.70229006,12
0.24633789,0.04498291,-0.031066895,-1.961832,-2.2671757,2.1908397999999996,12
0.24053955,0.0423584,-0.023254395,-1.2442749,-2.7175572,0.46564886,12
0.23913574,0.042175292999999996,-0.040222167999999996,-0.77862597,-1.2824427,0.3053435,12
0.24682617,0.060180664,-0.033447266,-0.6259541999999999,-0.9160305000000001,-2.1068702,12
0.24383545,0.04443359400000001,-0.021057128999999997,-0.5801527,1.2824427,-2.6259542000000002,12
0.25152588,0.0635376,-0.014770508,-0.2519084,0.099236645,-3.9312977999999994,12
0.25732422,0.052368164,-0.024536132999999998,0.8854962,0.8702290000000001,-0.16793893,12
0.24816895,0.044311523,-0.015136719,-2.29771,0.66412216,-1.0,12
0.24737549,0.051513672,-0.025756836,-2.129771,0.17557251,-0.9389313,12
0.24755860000000002,0.05224609400000001,-0.020141601999999998,-3.0992367,1.4503816,-0.9465648999999999,12
0.25494385,0.045898438,-0.015136719,-0.6183206,1.70229,-0.34351146,12
0.24322510000000003,0.04260254,-0.028381347999999997,-3.0076337000000004,-0.10687023,2.038168,12
0.24731445,0.05279541,-0.02154541,-2.2595419999999997,-0.022900764,2.3206108,12
0.24841309,0.05822754,-0.03253174,-1.6717557,-0.4274809,2.076336,12
0.24298096,0.05041504,-0.026123047000000003,-2.3435113,0.16793893,3.7099237,12
0.24554443,0.035583496,-0.024108887000000002,-2.6946564,-1.3129771000000001,3.6946564,12
0.24395752,0.046569824,-0.0357666,-1.7557251,-0.35114503,1.5877863,12
0.2387085,0.03265381,-0.016540527,-2.091603,0.26717559,2.6488549999999997,12
0.24176025,0.046203613,-0.012207031,-1.6793894,0.24427481,-0.740458,12
0.24066162,0.046569824,-0.027282715,-3.8167940000000002,0.9236641,-2.0687022,12
0.23791504,0.051635742000000005,-0.029052734,-2.4961832000000004,5.7251905999999995,-4.0458016,12
0.23333739999999997,0.053527832000000004,-0.00579834,-1.9847328999999998,4.8015265,-3.038168,12
0.25109863,0.05267334,-0.033325195,0.38167940000000006,5.2900763,-0.73282444,12
0.24957275,0.046142578,-0.013427733999999998,0.030534351,0.45801526,1.610687,12
0.25,0.043395996,-0.02520752,-2.1221373,-2.6717557999999997,1.2137405,12
0.24853516,0.045898438,-0.03741455,-1.7099236,-3.3282442000000003,0.83206105,12
0.24658203,0.037841797,-0.027160645,-2.1526718,-0.90839696,1.9770991999999998,12
0.24114989999999997,0.04736328,-0.012817383,-1.3587786,-1.1526718,2.9770992,12
0.24114989999999997,0.048828125,-0.036499023,-1.5267175,-0.90076333,2.9694657,12
0.25842285,0.03942871,-0.030883789,-2.053435,-0.9160305000000001,1.8167938999999997,12
0.24822998,0.02734375,-0.01977539,-3.0305343,-1.4732825,-0.20610687,12
0.2388916,0.04827881,-0.036376953,-1.9312977,0.53435117,1.8549619,12
0.24359131,0.050354004,-0.01586914,2.1221373,1.7786259999999998,3.3740457999999998,12
0.24707031,0.0435791,-0.0107421875,0.65648854,-0.48854962,7.534351299999999,12
0.26281738,0.04522705,-0.028808594,-1.1526718,-2.312977,10.931297,12
0.22686768,0.030578612999999998,-0.007385254,-6.793893300000001,0.9236641,12.541985,12
0.25274658,0.026550293,-0.018127441,-10.358779,1.5954198999999998,5.0305343,12
0.25061035,0.03729248,-0.05224609400000001,-5.2061067,10.595419999999999,3.9160306000000005,12
0.25720215,0.045776367000000005,-0.026184082,3.923664,17.961832,14.389313000000001,12
0.24182129,0.024719237999999998,-0.018737793,0.9465648999999999,14.030535,10.358779,12
0.25463867,0.02734375,-0.012329102,-2.5954200000000003,7.7480917,7.6183205,12
0.24047852,0.024108887000000002,-0.031921387,-8.206107000000001,10.2213745,1.4656489,12
0.2456665,0.030395507999999998,-0.0234375,-12.122137,12.557252,-5.2977099999999995,12
0.2630005,0.039123535,-0.020080566,-6.2977099999999995,20.503817,-7.2137402999999996,12
0.25305176,0.022888184,-0.014526367,-0.40458015,28.625953999999997,-8.282442999999999,12
0.25439453,0.03503418,-0.013000488000000001,0.4427481,31.801527,-11.267176,12
0.26208496,0.05090332,0.0034790040000000004,4.091603299999999,30.229008,-5.7938933,12
0.25457764,0.034179688,0.003112793,2.4961832000000004,27.259542,2.9160306,12
0.24298096,0.02130127,-0.0009155273,-1.5954198999999998,20.053434,1.4045801000000002,12
0.23095703,0.0435791,0.014343261999999999,-0.6793893,19.022902,2.687023,12
0.23760986,0.032958984,0.01373291,-0.79389316,20.068703,6.473282299999999,12
0.24639893,0.02911377,-0.011779785,0.84732825,15.824428,4.0839696000000005,12
0.25006104,0.025756836,0.015686035,0.007633588,16.786259,6.076336,12
0.25335693,0.041870117000000005,0.008056641,0.36641222,17.549618,6.847328,12
0.25079346,0.044677734000000004,0.02130127,1.2442749,14.564885,15.114504,12
0.24182129,0.021118164,0.020324707,-0.55725193,12.145039,15.290076000000001,12
0.24163818,0.032958984,0.033691406,-5.4656487,4.4274807,7.4274807,12
0.2524414,0.020385742,0.010375977,-5.633588,6.6412214999999994,5.809159999999999,12
0.23480225,0.016296387,0.022766112999999998,-6.9389315,7.3664119999999995,3.5496182000000003,12
0.25769043,0.03515625,0.030456543,-7.7557254,7.3129773,0.89312977,12
0.26727295,0.030029297000000003,0.005493164,-7.335878,8.473283,2.427481,12
0.24700928,0.028259277000000003,0.023010253999999997,-4.816794,10.725191,6.862595599999999,12
0.24908447,0.02532959,0.00024414060000000002,-2.687023,13.175572,5.5419846,12
0.24975586,0.009033203,0.016662598,-4.778626,8.580152499999999,5.2748094000000005,12
0.24688720000000003,0.018188476999999998,0.015930176,-6.6183205,5.366412,0.67175573,12
0.26861572,0.01977539,0.032409667999999996,-6.5114503,8.603053,3.3816792999999996,12
0.24877929999999995,0.013977051,0.018432617,-2.5114503,10.984733,3.076336,12
0.24835205,0.020385742,0.03265381,-2.8244274,11.503817,3.6641220000000003,12
0.24780273,0.012756348,0.019836426,-2.5954200000000003,10.557252,2.1755726,12
0.25152588,0.02166748,0.031433105,-3.1755726,9.931297,3.5572519999999996,12
0.25,0.015319824,0.010803223,-1.6335878000000001,15.198473000000002,3.1374047000000003,12
0.24591064,0.0134887695,0.029663086,-0.40458015,12.633588,0.90076333,12
0.2553711,0.012573242,0.0025024414000000004,-1.0152671,14.114504,1.4580153,12
0.25897217,0.021484375,0.039794922,-1.6793894,12.534351,1.480916,12
0.24822998,0.012878418,0.03552246,-0.5954198,7.0610685,1.3816794,12
0.2506714,0.013671875,0.053649902,-1.0,1.6946564999999998,5.0610685,12
0.25006104,0.008056641,0.033935547,-1.648855,-0.45038167,4.4656487,12
0.24194336,0.023803711,0.014709473,-2.5877862,-2.9160306,5.1984735,12
0.25701904,0.0107421875,0.049621582000000004,-0.22137405,0.49618322,3.167939,12
0.24871826,0.016052246000000003,0.026184082,2.5038167999999996,-0.28244275,3.8244274,12
0.25317383,0.024108887000000002,0.03253174,3.0,-6.6870227,7.80916,12
0.2565918,0.012817383,0.033996582000000004,0.97709924,-12.030535,9.961832000000001,12
0.24713135,-0.00579834,0.04296875,-0.022900764,-12.519084,9.267176,12
0.25787354,0.0004882813,0.023132324,0.8167939000000001,-9.312977,6.221374,12
0.24993896,0.005432129,0.0211792,1.2442749,-8.290076,2.1450381000000003,12
0.24444580000000002,-0.0008544922000000001,0.020446777,0.21374045,-7.587786,0.39694658,12
0.24682617,0.005981445300000001,0.042663574,1.0,-6.3511453,0.84732825,12
0.24987793,-0.0030517578000000003,0.03894043,0.64122134,-5.6488547,-3.1374047000000003,12
0.26068115,-0.0037841796999999997,0.039794922,0.47328246,-7.114503999999999,-2.7328243,12
0.25024414,0.008972168,0.01550293,2.5038167999999996,-6.114504,-4.4503818,12
0.24603271,0.010192871,0.03643799,0.57251906,-8.267176,-1.8778626,12
0.24621582,0.002319336,0.020080566,1.091603,-10.847328,-1.1679389999999998,12
0.24682617,0.009887695,0.034179688,1.70229,-10.137404,-2.6030533,12
0.24682617,0.006591797,0.020202637,0.65648854,-8.770992,-3.2900763,12
0.24432373,0.0072631836,0.0061035156000000005,1.4503816,-6.908396700000001,-5.3816795,12
0.24816895,0.0020751953,0.011413574,-0.06870229,-7.625953999999999,-8.641221,12
0.24993896,-0.0018310547,0.0134887695,-0.99236643,-6.328244000000001,-9.763359,12
0.24749756,0.011291503999999999,0.012207031,-1.3206106000000002,-5.1297708,-11.748092,12
0.24987793,0.011657715,0.020751953,-1.5572518999999998,-2.3435113,-11.145039,12
0.25854492,0.018920898000000002,0.014587402,0.4274809,-1.8244275,-10.938931,12
0.24713135,0.0134887695,0.015319824,-1.0687023,-5.885496,-13.366412,12
0.25463867,0.015014648,0.009887695,-0.740458,-5.396946400000001,-14.580152499999999,12
0.25744629999999996,0.023376465,0.009460449000000001,-2.3358779999999997,-7.3511453,-14.419847500000001,12
0.2555542,0.022338867000000002,0.014770508,1.0534351,-7.7328243,-9.877863,12
0.25042725,0.032348632999999995,-0.0006103516000000001,1.1603054,-6.396946400000001,-8.977099,12
0.2508545,0.031921387,0.011291503999999999,1.0839695,-7.2519083,-7.7862597000000004,12
0.25531006,0.02520752,0.005859375,1.0305344,-10.412213000000001,-7.076336,12
0.2564087,0.021057128999999997,0.022888184,0.21374045,-11.21374,-11.129771,12
0.24591064,0.014282227,0.0036010741999999997,-0.08396947,-11.610686999999999,-6.0610685,12
0.2579956,0.020874023000000002,0.0087890625,0.2519084,-11.564885,-8.801527,12
0.25646973,0.028320312,0.006958008000000001,-2.6183207000000004,-13.290076000000001,-9.2213745,12
0.25201416,0.032348632999999995,-0.0032958984000000004,-0.9389313,-13.740458499999999,-5.3511453,12
0.2548828,0.026672362999999998,-0.013244628999999999,-0.45038167,-14.80916,-3.1984732000000005,12
0.24914551,0.02557373,-0.014770508,-3.961832,-14.877863,-3.2442749,12
0.25427246,0.027648926,-0.015075683999999999,-4.2748094000000005,-11.633588,-7.038167999999999,12
0.25469970000000003,0.040222167999999996,0.0021362305,-4.374046,-9.664123,-5.190840000000001,12
0.25775146,0.03515625,-0.019592285,1.6412214,-5.0839696,1.7328244,12
0.23571777,0.02130127,-0.0033569335999999996,5.7175574000000005,-2.9847328999999996,5.6488547,12
0.24591064,0.010192871,-0.020629883,1.8015267,-5.236641400000001,-1.7557251,12
0.24389648,0.03869629,-0.007751465,3.2748091,-4.480916000000001,-7.6870227,12
0.25793457,0.032714844,0.015075683999999999,0.35877863,-12.450381,2.6488549999999997,12
0.2421875,0.02154541,-0.011474608999999998,-0.9236641,-14.480916,3.1145039,12
0.25842285,0.026794434,-0.017700195,-2.9923662999999996,-14.358779,5.2137402999999996,12
0.2584839,0.024108887000000002,-0.016235351999999998,-7.091603299999999,-12.732824,-0.5038168,12
0.26080322,0.030944824,-0.027282715,-3.9389312000000007,-8.564885,-4.4503818,12
0.24768066,0.024230957,-0.036987305,1.6259542,-1.0458015,-10.137404,12
0.25079346,0.01940918,-0.01373291,2.2595419999999997,3.7633588,-10.129771,12
0.24444580000000002,0.023010253999999997,-0.013427733999999998,0.73282444,4.633588,-11.137404,12
0.24627686,0.026733398,0.007751465,-2.7328243,5.6183205,-13.725191,12
0.24743652,0.026550293,-0.019165039,-5.1603055,7.5725193,-16.91603,12
0.25549316,0.030517577999999997,-0.037597656,-5.4580154,10.152672,-20.213741,12
0.24761963,0.040405273,-0.010375977,-1.1832061000000003,9.534351,-16.633587,12
0.24310303,0.046569824,-0.009277344,-0.022900764,10.427481,-17.045801,12
0.25494385,0.044128417999999996,-0.039611816,1.3664121999999999,5.946564700000001,-9.007633,12
0.25006104,0.051391599999999996,-0.016296387,-1.6870228999999999,1.4045801000000002,-6.9389315,12
0.25927734,0.036376953,-0.0107421875,-2.8931298,-3.5190839999999994,-4.778626,12
0.25329589999999996,0.032165527,-0.016723633,-2.7175572,-2.2137403,-3.9770992,12
0.25268555,0.043884277,-0.0015869141,-1.2366412,-2.3816792999999996,-6.2519083,12
0.25854492,0.034484863,-0.009338379,-1.9694656000000004,-0.66412216,-8.832061,12
0.23809814,0.044311523,-0.024475097999999997,-0.2977099,3.1221373,-6.9541984,12
0.24816895,0.03881836,-0.005432129,-3.5267177000000003,3.2519082999999998,-9.732824,12
0.24078369,0.041625977,0.007507324,-3.4274809999999998,4.480916000000001,-10.679389,12
0.24206543,0.051452637,-0.034118652,0.5496183000000001,6.2061067,-8.145039,12
0.24053955,0.059692382999999995,-0.021972656,2.427481,6.152672,-5.2977099999999995,12
0.23937988,0.05529785,-0.006164551,0.022900764,0.015267176,-0.3740458,12
0.24853516,0.052734375,-0.0068359375,-3.4885497,-3.4580152,-1.7633588,12
0.25543213,0.039855957000000004,-0.0029296875,-4.412214,-2.687023,-2.687023,12
0.23510742,0.039245605,-0.019165039,-6.412214,-1.3740458,-5.2290077,12
0.25030518,0.05493164,-0.025634766,-5.7022900000000005,4.5725193,-7.4274807,12
0.23950195,0.053710938,-0.023742676,-1.2977100000000001,10.21374,-3.1526718,12
0.2524414,0.050842285,-0.011962891000000002,-0.19083970000000003,10.832061,-2.5801528,12
0.2600708,0.04931640599999999,-0.015930176,-1.7404580000000003,5.7251905999999995,-0.16793893,12
0.2442627,0.049438477,-0.010559082,-2.961832,5.0229006,-1.4885496,12
0.24835205,0.049621582000000004,-0.006286621,-3.5038167999999996,5.89313,-0.259542,12
0.24810791,0.053527832000000004,0.004333496,-3.2442749,6.038168,-1.0458015,12
0.24096679999999995,0.05419922,-0.019714355,-1.1068702,8.916031,-2.1984732000000005,12
0.25616455,0.046569824,-0.0075683593999999995,-0.6335878,8.519084,-1.4580153,12
0.24932861,0.059143065999999994,-0.008911133,1.9465648999999998,8.763359,0.022900764,12
0.24047852,0.051330565999999994,0.0014648438,0.5954198,4.2748094000000005,5.5648856,12
0.23699951,0.05871582,-0.011962891000000002,0.8396947,1.3206106000000002,6.6106872999999995,12
0.2529297,0.027770996000000003,-0.0014648438,-2.6335877999999995,-3.5496182000000003,9.396947,12
0.24053955,0.03741455,-0.009033203,-3.6106870000000004,-8.557252,12.0,12
0.2401123,0.03363037,-0.004699707,-3.7099237,-9.946565,12.465649,12
0.2479248,0.0423584,-0.008422852,-3.8015267999999995,-13.198473000000002,14.488548999999999,12
0.24273682,0.036804199999999995,-0.027770996000000003,-3.946565,-13.091603,11.832061,12
0.23773193,0.0345459,0.0015258789000000001,-4.053435299999999,-14.679389000000002,11.526717,12
0.23876953,0.02368164,-0.0020141601999999997,-2.6030533,-12.022901,8.106871,12
0.24761963,0.026245117000000002,-0.023742676,-3.7480917000000002,-9.458015,5.5801525000000005,12
0.25775146,0.025817871000000003,-0.024597168,-1.961832,-4.3587785000000006,2.5419848,12
0.2557373,0.02746582,-0.009460449000000001,-1.0992366000000002,1.3358778999999998,-3.2366412,12
0.26593018,0.044921875,-0.0036010741999999997,-0.48854962,2.5038167999999996,-5.519083999999999,12
0.24963379,0.034484863,-0.018371582,-1.5954198999999998,0.58778626,-2.1374047000000003,12
0.25268555,0.040039062,-0.03869629,-6.259542,-0.20610687,-7.9160304,12
0.25897217,0.046447754,-0.023071289,-1.351145,2.519084,-4.809159999999999,12
0.24871826,0.02923584,-0.007507324,0.96183205,2.7251909,-3.0992367,12
0.25396729999999995,0.028503418,-0.009216309,1.1221374,1.0,-3.7862597,12
0.24951172,0.02142334,-0.0079956055,-2.4198472,3.1908397999999996,-8.870229,12
0.25469970000000003,0.037109375,-0.008117675999999999,-3.129771,5.053435299999999,-16.625954,12
0.24487305,0.050720215,-0.016601562,2.7557251,11.083969,-12.78626,12
0.26013184,0.044555664,-0.019042969,5.3206105,8.938931,-7.1755724,12
0.22821045,0.036254882999999995,-0.0064697266000000005,3.3587787000000002,3.5038167999999996,-6.038168,12
0.24896239999999997,0.050476074,-0.005554199,2.4580152,-3.6564887,-0.6259541999999999,12
0.25164795,0.034484863,-0.014404297,-2.7557251,-10.7404585,1.6183206,12
0.25579834,0.044189453,0.006652831999999999,-5.4274807,-14.496182999999998,-0.061068702,12
0.24261475,0.04071045,-0.026794434,-5.809159999999999,-11.931297,-1.0458015,12
0.24591064,0.043273926,-0.030883789,-5.152672,-6.396946400000001,0.20610687,12
0.2642212,0.05029297,-0.0390625,-1.70229,-0.061068702,-1.8320610000000002,12
0.24005127,0.053833007999999995,-0.02130127,1.0152671,8.21374,-0.9465648999999999,12
0.2518921,0.042785645,-0.020568848,1.0,10.610686999999999,-4.4274807,12
0.25128174,0.041503906,-0.013183594,2.4503817999999997,11.030535,-4.0305343,12
0.24914551,0.03729248,-0.026672362999999998,2.3969467,11.824428,-5.1374044,12
0.23773193,0.041625977,-0.020751953,1.7328244,8.816792999999999,-4.2748094000000005,12
0.25836182,0.03173828,-0.02142334,1.5343511,6.2748094000000005,-1.7557251,12
0.24316406,0.044555664,-0.00579834,0.77099234,5.9007635,-0.28244275,12
0.24383545,0.040893555,-0.013000488000000001,-0.9541985000000001,2.1374047000000003,0.71755725,12
0.25463867,0.039733887,-0.022888184,-3.1221373,-2.2671757,1.3740458,12
0.23803711,0.038879395,-0.017944336,-3.832061,-3.70229,1.4045801000000002,12
0.24633789,0.04284668,-0.012145996000000001,-3.40458,-2.572519,0.7099236999999999,12
0.2541504,0.046081542999999996,-0.005432129,-5.442748,0.9541985000000001,1.0076336,12
0.2526245,0.035888672,-0.00982666,-1.4732825,1.3206106000000002,-1.5648855,12
0.24523926,0.04248047,0.0003662109,-0.66412216,3.5267177000000003,-2.923664,12
0.24224854,0.0501709,-0.01574707,-0.061068702,4.6946564,-3.3435113,12
0.24243164,0.045288086,-0.012573242,-1.1297709999999999,3.4198472,0.9160305000000001,12
0.25323486,0.041992188,-0.009277344,-3.2442749,0.64122134,0.58778626,12
0.25061035,0.036010742000000005,-0.013122558999999999,-4.396946400000001,0.7633588000000001,0.030534351,12
0.24609375,0.039733887,-0.018127441,-4.0839696000000005,2.3511450000000003,0.79389316,12
0.25457764,0.037963867000000005,-0.0072631836,-2.2137403,2.9923662999999996,-1.0152671,12
0.24761963,0.04534912,-0.030151367000000002,-1.4732825,3.8091602,-0.14503817,12
0.25378418,0.036376953,-0.021484375,-0.053435113,3.7099237,-0.77862597,12
0.24627686,0.055603027,-0.015686035,0.9694656999999999,8.267176,1.5114504,12
0.24780273,0.04345703,0.0087890625,1.9083970000000001,3.0305343,3.8015267999999995,12
0.24029541,0.04437256,-0.0146484375,1.6412214,0.610687,5.7862597000000004,12
0.26153564,0.03314209,-0.013183594,0.16793893,-1.3435115,3.6335877999999995,12
0.24127197,0.040771484,0.0044555664,-0.22137405,-3.7251909,3.6946564,12
0.24609375,0.037963867000000005,0.0079956055,-0.03816794,-4.740458,4.8702292,12
0.24951172,0.037719727,-0.006958008000000001,-0.9847328000000002,-7.7862597000000004,5.7251905999999995,12
0.2567749,0.033508300000000005,-0.007629394499999999,-1.4122137,-9.473283,5.557252,12
0.24560547,0.034179688,-0.012512207,-2.1984732000000005,-10.770992,8.290076,12
0.26092529999999997,0.026916503999999997,-0.029296875,-2.1221373,-14.320610999999998,7.7557254,12
0.25463867,0.033203125,-0.030334472999999997,-2.687023,-13.435115,7.4351144,12
0.24182129,0.036865234,-0.025939941,-4.1755724,-12.656488000000001,5.1603055,12
0.25421143,0.032836914,-0.029907227,-5.1297708,-11.572519,1.648855,12
0.24291992,0.023620605,-0.016845703,-2.9923662999999996,-7.068702,-0.41221374,12
0.24719238,0.031311035,-0.033203125,-3.0229008,-6.0229006,-1.7709924,12
0.25946045,0.03387451,-0.027404785,-1.0305344,-3.4809160000000006,-3.7328242999999994,12
0.24334717,0.02935791,-0.030212402000000003,-0.6183206,-1.4503816,-1.8931297999999999,12
0.24951172,0.029174805,-0.028564452999999997,-0.3740458,-1.7404580000000003,-4.4274807,12
0.2515869,0.031433105,-0.040100098,-1.6717557,0.2519084,-6.2748094000000005,12
0.24981689999999998,0.039367676000000004,-0.024230957,-1.2671756,2.3664122000000005,-8.137404,12
0.23815918,0.030761719,-0.021057128999999997,-1.3435115,4.6183205,-9.297709,12
0.23730469,0.039611816,-0.017700195,-1.8854961,8.969465,-14.21374,12
0.25006104,0.031433105,-0.045715332000000004,1.1068702,11.145039,-18.977098,12
0.2467041,0.041809082000000004,-0.020263672,4.3893127,18.847328,-22.06107,12
0.2479248,0.045959473,-0.015991211,7.5801525,23.664122,-24.045801,12
0.2479248,0.046020507999999995,-0.015136719,8.229008,24.48855,-20.183207,12
0.25628662,0.047058105,-0.0013427734,10.183207000000001,19.534351,-17.717558,12
0.2388916,0.06683349599999999,0.005859375,8.358779,21.549618,-9.870229,12
0.23681639999999998,0.048828125,-0.027893066,4.7709923,13.450381,-8.587786999999999,12
0.2512207,0.05822754,0.004638672,3.1221373,8.854961,-8.992367,12
0.25134277,0.056640625,0.00042724610000000003,0.0,2.206107,-9.389313000000001,12
0.23468018,0.037597656,-0.014831543,-2.6412212999999998,-0.78625953,-8.832061,12
0.24145508,0.04925537,-0.00390625,-1.5954198999999998,-1.7099236,-8.297709,12
0.24957275,0.050476074,-0.0033569335999999996,-4.2061067,-2.2290077,-6.1679387000000006,12
0.24682617,0.05621338,-0.015930176,-3.5572519999999996,-0.015267176,-2.8625952999999997,12
0.2559204,0.059020996,0.0021362305,-0.7557252,0.08396947,-0.2977099,12
0.22729492,0.03540039,-0.0033569335999999996,-0.19083970000000003,-0.99236643,1.8244275,12
0.24871826,0.054626465,-0.016662598,-0.8091603,-0.8015267,2.870229,12
0.24707031,0.055480957000000004,0.010131836,-1.3969465,-0.90076333,0.7251908,12
0.22821045,0.058776855,-0.036193848,-2.4122138,-3.2442749,0.19847329,12
0.2518921,0.059509277,-0.0045166016,-3.5190839999999994,-2.312977,0.40458015,12
0.23950195,0.04437256,-0.014038086000000002,-2.206107,-2.6717557999999997,0.0,12
0.25439453,0.054016113,-0.021057128999999997,0.5496183000000001,2.0229008,-0.40458015,12
0.24694824,0.04925537,-0.028991700000000002,-0.83206105,2.572519,-1.3129771000000001,12
0.23950195,0.04498291,-0.0068969727,-2.4732822999999997,5.5343513,-7.7328243,12
0.23706055,0.053894042999999996,-0.024353027000000003,-2.687023,6.259542,-8.251908,12
0.2529297,0.049743652,-0.011962891000000002,-1.7175573,2.091603,-7.961832000000001,12
0.24761963,0.05407715,-0.0211792,-0.77099234,3.2290077,-8.206107000000001,12
0.24096679999999995,0.056884765999999996,0.004211426,0.9541985000000001,-1.5496184,-7.091603299999999,12
0.24359131,0.048950195,0.008972168,-1.4274809,-1.5343511,-3.8778627,12
0.25061035,0.041931152,-0.01171875,-2.8244274,-4.633588,-2.221374,12
0.25500488,0.05432129,-0.027832031,-0.77862597,-2.3282442000000003,-2.923664,12
0.2467041,0.05456543,-0.008483886999999999,-1.3282443000000002,-0.46564886,-0.96183205,12
0.24877929999999995,0.047912598,-0.0028076171999999997,-0.9389313,-1.0,-0.8091603,12
0.25469970000000003,0.052978515999999996,-0.00024414060000000002,-1.9770991999999998,-1.9236640999999999,-0.90839696,12
0.23510742,0.05657959,-0.0014038085999999999,-2.9923662999999996,-0.6946565,0.03816794,12
0.24395752,0.059020996,-0.024475097999999997,-3.29771,-0.45038167,-1.4961832,12
0.23693848,0.039916992000000005,-0.0178833,-0.21374045,3.9847328999999996,-3.0076337000000004,12
0.24963379,0.05712890599999999,-0.010498047,-0.86259544,8.923664,-5.7251905999999995,12
0.23339844,0.039123535,-0.01953125,2.3282442000000003,7.70229,-6.3511453,12
0.25561523,0.06292724599999999,0.009033203,1.9236640999999999,11.167939,-2.6335877999999995,12
0.23980713,0.05895996,-0.012939453,1.0610687,7.7862597000000004,-1.8091604,12
0.2456665,0.05407715,0.008178711,0.84732825,4.076336,0.9541985000000001,12
0.2564087,0.05493164,-0.0009155273,-1.4656489,-0.114503816,0.9389313,12
0.26495359999999996,0.054016113,0.003112793,-3.5419848,-2.1526718,2.1450381000000003,12
0.24749756,0.061157227,-0.018676758,-3.4503817999999997,-3.7175572,4.114504,12
0.24047852,0.04437256,-0.016296387,-3.465649,-3.3129769999999996,2.3740457999999998,12
0.24114989999999997,0.051452637,-0.012512207,-2.8244274,-3.221374,3.961832,12
0.24871826,0.042236328,-0.0095825195,-2.7251909,-0.53435117,2.519084,12
0.24688720000000003,0.058288574,-0.010620117,-3.8854961,0.27480915,-0.13740458,12
0.25323486,0.045715332000000004,-0.011474608999999998,-2.8549618999999997,1.2977100000000001,0.8778626,12
0.24633789,0.06488037,0.008056641,-1.4656489,-0.015267176,-0.23664123,12
0.23925781,0.037963867000000005,-0.0003662109,-0.97709924,0.015267176,0.17557251,12
0.23486328,0.05279541,0.0006713867,-1.3358778999999998,0.77862597,-0.21374045,12
0.25268555,0.058288574,-0.011108398,0.20610687,-0.5648854999999999,-0.07633588,12
0.2578125,0.044189453,0.008361816,-1.1603054,-2.687023,2.038168,12
0.24304199,0.044616699999999995,-0.023132324,-1.1832061000000003,-3.7557251000000003,3.3435113,12
0.25170898,0.052612305,-0.026855469,0.66412216,-3.9389312000000007,3.5419848,12
0.23474121,0.03894043,-0.011474608999999998,-0.38167940000000006,-5.374046,1.5801526000000001,12
0.24188232,0.05456543,-0.016052246000000003,-0.57251906,-5.3816795,1.4274809,12
0.24206543,0.04425049,-0.01953125,-1.4885496,-4.587786,0.7251908,12
0.25469970000000003,0.054382324,-0.030456543,-1.1450381,-3.6335877999999995,-0.6870229,12
0.25616455,0.052124023,-0.0024414061999999998,-2.312977,-2.2900763,-1.8854961,12
0.25146484,0.033203125,-0.013427733999999998,-3.2290077,-0.6335878,-4.9160304,12
0.25653076,0.04736328,-0.021972656,-4.480916000000001,1.7938931,-7.59542,12
0.25335693,0.049682617000000005,-0.016479492,-1.3587786,4.0152674,-8.030535,12
0.24981689999999998,0.049865723,-0.02947998,-0.16793893,7.183206,-8.229008,12
0.24279785,0.04925537,-0.004272461,0.8015267,6.3816795,-5.442748,12
0.25329589999999996,0.044921875,-0.002319336,0.43511450000000007,1.9694656000000004,-1.9160305,12
0.24829102,0.055480957000000004,-0.0053100586,-1.091603,-1.3587786,-1.4351145,12
0.25146484,0.051513672,-0.020874023000000002,-1.221374,-1.3664121999999999,-0.5496183000000001,12
0.23907470000000003,0.051818848,-0.028503418,-1.5419847,-0.07633588,-1.7557251,12
0.25183105,0.054504395,-0.008850098,0.0,1.7862595000000001,-1.9694656000000004,12
0.24493408,0.046875,-0.021911621000000003,0.60305345,2.6030533,0.71755725,12
0.23626709,0.036743164,0.0025634766,-0.23664123,2.908397,0.28244275,12
0.25323486,0.04083252,-0.004028320300000001,-1.3969465,-0.45038167,1.1526718,12
0.25299072,0.04321289,-0.0068359375,-1.2519083999999998,1.1450381,-2.3740457999999998,12
0.25250244,0.054382324,-0.010498047,-1.0534351,0.89312977,-2.3816792999999996,12
0.25946045,0.05090332,-0.02368164,-2.6793892,1.7328244,-4.3587785000000006,12
0.24237060000000002,0.062194824,-0.025146484,-1.4274809,3.29771,-4.091603299999999,12
0.24963379,0.041381836,-0.016418457,-2.4732822999999997,3.4580152,-4.068702,12
0.25854492,0.051330565999999994,-0.016479492,-3.3740457999999998,5.2671757,-4.3893127,12
0.23449707,0.050109863,0.014526367,-1.5496184,6.236641400000001,-3.908397,12
0.24743652,0.050842285,-0.013793945,-0.5954198,3.2824428,-2.1755726,12
0.25097656,0.06756592,-0.016601562,-0.97709924,3.0152671000000004,-1.8320610000000002,12
0.24029541,0.048034667999999996,-0.008483886999999999,-1.3282443000000002,-0.9389313,-0.77862597,12
0.24627686,0.059020996,-0.0028076171999999997,0.2977099,-0.99236643,0.8702290000000001,12
0.23370361,0.05316162,-0.017150878999999997,0.07633588,-0.84732825,1.4732825,12
0.2506714,0.052368164,-0.012329102,-1.8396946,-0.122137405,1.0534351,12
0.24407959,0.049926757999999995,-0.016052246000000003,-2.7709923,-1.4274809,-0.3740458,12
0.24688720000000003,0.057800292999999996,-0.010009766,-0.5496183000000001,0.26717559,2.0610688,12
0.237854,0.045898438,-0.033325195,-1.6717557,-0.41221374,-0.52671754,12
0.24176025,0.045532227,-0.0038452148,-3.2671757,1.5801526000000001,-0.061068702,12
0.2536621,0.05303955,-0.015258788999999998,-2.2290077,-0.73282444,-0.8778626,12
0.24780273,0.049560547,-0.0061035156000000005,-2.7404580000000003,0.15267175,-0.9312976999999999,12
0.24414062,0.03729248,-0.01727295,-3.1068702,2.312977,0.03816794,12
0.253479,0.06103515599999999,-0.018920898000000002,-3.5572519999999996,2.7480917000000002,-0.740458,12
0.23931885,0.051879882999999995,-0.024902344,-3.0839694,1.6870228999999999,0.84732825,12
0.25708008,0.040161132999999995,-0.028259277000000003,-2.389313,1.0763359,1.2671756,12
0.24633789,0.05053711,-0.016174316,-1.5801526000000001,1.4961832,-1.0076336,12
0.24108887,0.04107666,-0.014465332,1.9236640999999999,2.3511450000000003,-1.961832,12
0.24615479,0.04852295,-0.019897461,0.4427481,2.6641220000000003,-5.9007635,12
0.25073242,0.04699707,-0.022644043,2.1374047000000003,5.6106873,-8.083969,12
0.25775146,0.06292724599999999,-0.021118164,2.4732822999999997,9.793892999999999,-14.625955,12
0.24621582,0.04901123,-0.020202637,7.2748094,14.206107000000001,-14.503817000000002,12
0.22479248,0.053955078,-0.025268555,6.793893300000001,15.389313000000001,-12.083969,12
0.24255371,0.05407715,-0.014831543,4.9923663000000005,7.396946400000001,-15.480916,12
0.24621582,0.057373047,-0.0067749023,0.519084,4.2442746,-15.793892999999999,12
0.26519775,0.054992676,-0.000793457,-5.557252,-0.19847329,-17.862595000000002,12
0.24200439999999998,0.055908203,-0.0007324219,-9.175572,-4.0152674,-24.557251,12
0.25598145,0.06378174,-0.01184082,-12.580152499999999,4.4198474999999995,-26.526718,12
0.25427246,0.0680542,-0.022460938,-11.152672,-6.236641400000001,-21.435114000000002,12
0.23712158,0.07128906,-0.0021362305,-7.221374000000001,3.5267177000000003,-24.534351,12
0.23626709,0.051330565999999994,-0.026367188,3.2137403,6.4580154,-23.984734,12
0.24700928,0.0680542,-0.02722168,9.816792999999999,18.015266,-26.946565999999997,12
0.24334717,0.12170410000000002,0.033508300000000005,0.022900764,28.625953999999997,-20.465649,12
0.24395752,0.10461426,0.025512695,-0.54198474,-25.755726,0.5496183000000001,12
0.23876953,0.089904785,-0.002380371,-8.396947,-21.404581,2.7099237,12
0.24829102,0.062683105,-0.02142334,-5.5038165999999995,-15.312976999999998,6.847328,12
0.23370361,0.07672119,-0.015930176,-6.0458016,-13.450381,-0.97709924,12
0.24340820000000005,0.10003662,-0.019226074,-2.6793892,-16.167938,7.091603299999999,12
0.24542236,0.06927489999999999,0.00592041,-11.091603,-32.053436,16.496183,12
0.24908447,0.06939697,-0.003540039,-20.900763,-29.977097999999998,12.366412,12
0.23754883,0.09057617,-0.030883789,-21.51145,-35.702290000000005,15.091603,12
0.23840332,0.09637451,-0.06439209,-6.7251906,-37.84733,27.900763,12
0.24835205,0.059570312,-0.025756836,-17.694656,-26.694656,29.93893,12
0.24725342,0.055786132999999995,-0.016906738,-16.496183,-25.175573,12.083969,12
0.23040771,0.0625,-0.05078125,-18.183207,-53.67175699999999,21.267176,12
0.24755860000000002,0.070129395,-0.043823242000000005,-11.015267,-39.656490000000005,40.08397,12
0.24139404,0.08264160000000001,-0.054748535,-12.198473,-50.358779999999996,58.732826,12
0.24926758,0.06225586,-0.040771484,2.206107,-48.305344,83.091606,12
0.24395752,0.043945312,-0.07781982400000001,17.274809,-36.572517,80.87786,12
0.25280762,0.044555664,-0.03375244,18.229008,-49.343509999999995,110.229004,12
0.26660156,0.06378174,-0.07092285,41.53435,-72.0,122.862595,12
0.29125977,0.055786132999999995,-0.07116699,83.221375,-82.19847,137.35878,12
0.31628418,0.06628418,-0.07592773400000001,117.68701999999999,-17.57252,185.67175,12
0.32025146,-0.0064086914,-0.06872558599999999,112.0687,-13.977098999999999,186.771,12
0.23956299,-0.051879882999999995,-0.01373291,62.16030500000001,27.12977,123.48092,12
0.25720215,-0.06097412,-0.03479004,-38.099236,-33.76336,29.961832,12
0.27093506,0.018310547,-0.12915039,-55.198475,-17.251910000000002,9.083969,12
0.3237915,-0.12005615,0.0028076171999999997,-35.885498,101.47328,49.389313,12
0.26611328,-0.12066650400000001,0.06359863,-32.656490000000005,-1.7480916000000002,60.21374,12
0.24542236,-0.08660889,0.0024414061999999998,6.89313,44.0,-20.206106,12
0.29864502,-0.097473145,-0.022277832,-14.053435,40.114502,-20.496183,12
0.26330566,-0.08917236,-0.02746582,-42.78626,68.42748,-9.908397,12
0.28088379999999996,-0.09075928,-0.054138184000000006,4.0,61.0229,-13.206107000000001,12
0.27514648,-0.04925537,-0.030944824,24.412214000000002,75.091606,28.099237,12
0.23187256,-0.066345215,-0.034423828,10.908397,57.427482999999995,17.305344,12
0.26483154,-0.05340576,-0.07202148400000001,18.793894,57.312977000000004,-25.022902,12
0.23699951,-0.02142334,-0.028808594,27.503816999999998,67.0,7.5801525,12
0.21075439999999998,-0.07623291,-0.03564453,55.23664,66.137405,5.5419846,12
0.21356201,-0.057495117000000005,0.000793457,60.198475,71.35114,-5.908396700000001,12
0.19128418,-0.05456543,-0.008972168,23.282442,50.732826,-3.5801528,12
0.17858887,-0.038146973,-0.014038086000000002,10.122137,32.366413,-27.366413,12
0.17218018,-0.004211426,-0.03656006,18.664122,42.664124,-28.847328000000005,12
0.17468262,-0.026184082,-0.03527832,26.946565999999997,47.87786,-11.152672,12
0.19573975,-0.009399414,-0.055908203,36.564884,52.656490000000005,-20.549618,12
0.23944092,0.04736328,-0.042419434000000006,60.335876,84.908394,-33.992367,12
0.31195068,0.0020141601999999997,0.027404785,107.87023,141.76335,-31.122137,12
0.32720947,0.021118164,0.057434082000000004,173.83969,123.10687,-15.725191,12
0.29577637,-0.036010742000000005,0.07800293,219.87022000000002,95.60305,3.4427480000000004,12
0.26916504,0.015197753999999999,0.16711426,195.82443,19.045801,58.709922999999996,12
0.21856689999999998,0.039367676000000004,0.08496094,144.25954,-57.458015,102.47328,12
0.17846679999999998,-0.0064086914,0.06616211,82.32061,-66.70229,76.10687,12
0.15905762,-0.004760742,0.0126953125,8.114504,-58.801525,24.091601999999998,12
0.12207031,0.056396484000000004,-0.02557373,-14.969465,-56.061069999999994,4.847328,12
0.08190918,0.07354736,-0.0115356445,37.473279999999995,-71.25954399999999,2.3206108,12
0.12957764,0.10369873,-0.09338379,140.77100000000002,-76.64886,13.061069,12
0.3347168,0.12976074,0.0040893555,228.35877999999997,117.61068999999999,90.061066,12
0.4076538,-0.18933105,0.3531494,175.2519,147.85497,80.94655999999999,12
0.29083252,-0.23754883,0.2952881,69.63359,-95.58015400000001,-97.64121999999999,12
0.31506348,-0.07519531,0.14233398,61.351147,-84.45038000000001,-155.01527,12
0.42041016,-0.044189453,0.2479248,99.03053,-95.74809,-14.366412,12
0.34912109999999996,-0.08465576,0.1687622,132.82443,-117.778625,-11.106871,12
0.27819824,-0.024230957,0.16931152,120.33588,-57.274809999999995,-7.6793895,12
0.23101807,-0.09466553,0.14526367,59.916030000000006,-88.28244000000001,-2.6412212999999998,12
0.18908691,-0.06732178,0.08099365,35.190838,-104.70229,-56.664124,12
0.20031738,-0.0049438477,0.0725708,44.183205,-103.28244000000001,-50.564884,12
0.18035889,-0.0034179688000000002,0.030273438,68.35878000000001,-106.183205,-25.183207,12
0.1852417,-0.03894043,0.032592773,56.938930000000006,-76.175575,-22.389313,12
0.16827393,-0.046691895,0.05279541,15.175572,-69.770996,-42.312977000000004,12
0.16107178,-0.03942871,0.079589844,-24.137404999999998,-93.618324,-60.67175699999999,12
0.14367676,-0.0390625,0.057495117000000005,-47.526720000000005,-101.32825,-71.770996,12
0.18969727,-0.001159668,-0.005432129,-35.961834,-74.25954399999999,-63.16030500000001,12
0.2786255,-0.018127441,0.09240723,-52.81679499999999,87.183205,-13.854961,12
0.3388672,-0.028381347999999997,0.09466553,-54.78626,64.98473,-36.274809999999995,12
0.37921143,0.032287598,0.09588623,-8.961832000000001,55.312977000000004,-36.618320000000004,12
0.36706543,0.08435058599999999,0.121154785,6.8549619999999996,26.435114000000002,39.15267,12
0.31799316,-0.006164551,0.07409668,-3.7557251000000003,-27.610687,60.137405,12
0.29284668,-0.0071411133,0.032714844,-17.076335999999998,-36.526720000000005,-4.3206105,12
0.23754883,0.0028076171999999997,0.027648926,-28.328245000000003,-32.633587,-30.335878000000005,12
0.1763916,0.008483886999999999,0.015808105,-15.145039,-29.10687,-56.969467,12
0.14916992,-0.012023926,-0.034362792999999996,10.595419999999999,0.33587787,-70.76335999999999,12
0.16705322,0.01373291,-0.033508300000000005,13.167939000000002,28.122137,-38.648853,12
0.19464111,0.03161621,-0.034729004,24.068703,51.53435,1.6183206,12
0.19653320000000002,0.039367676000000004,0.002746582,37.366413,33.335876,26.595419,12
0.19372559,0.042297363,0.0,41.10687,24.282442,42.908398,12
0.21496582,0.024597168,-0.017578125,37.770992,22.740458,64.061066,12
0.23315429999999995,0.032714844,-0.027282715,42.320609999999995,27.045801,66.175575,12
0.2619629,0.043701172,-0.013122558999999999,43.870228000000004,47.358779999999996,64.9313,12
0.30584717,0.01953125,0.0015258789000000001,29.122137,63.32824300000001,68.24428,12
0.32263184,0.02368164,0.04748535,-0.43511450000000007,56.9771,57.801525,12
0.335083,0.010498047,0.052734375,-34.137405,32.78626,23.076335999999998,12
0.3324585,0.021240234,0.03729248,-63.419846,12.641221,-16.419847,12
0.31256104,0.0036010741999999997,0.024963378999999997,-75.61069,16.885496,-54.961833999999996,12
0.32708740000000003,0.040771484,0.0034179688000000002,-75.83206,-4.9160304,-67.0458,12
0.2647705,0.024841309,-0.009216309,-65.21374,-20.015266,-78.66412,12
0.19525146,0.03765869,-0.008605957,-50.717556,-16.343512,-85.99235999999999,12
0.19671631,0.036376953,-0.018188476999999998,-20.190839999999998,-21.801527,-60.297709999999995,12
0.22918701,0.043762207000000004,0.024902344,15.122137,5.3511453,-15.549619,12
0.26940918,0.031677246,0.028076172000000003,36.458015,0.77099234,12.78626,12
0.26251220000000003,0.039123535,-0.02947998,-2.778626,-0.28244275,-0.14503817,12
0.2518921,0.04321289,-0.032958984,-2.3664122000000005,-0.007633588,-2.8091602000000004,12
0.26013184,0.0390625,-0.018371582,-2.1603053,-1.1679389999999998,-1.6412214,12
0.24285889,0.039123535,-0.017944336,-1.4732825,-1.8625953999999998,-0.7557252,12
0.24926758,0.03527832,-0.018066406,-0.5114504,0.2977099,-2.9694657,12
0.24249268,0.041381836,-0.018737793,-0.4427481,0.15267175,-2.3358779999999997,12
0.25299072,0.040222167999999996,-0.0067749023,-1.1068702,0.24427481,-3.778626,12
0.25048828,0.034973145,-0.0034179688000000002,-0.58778626,0.39694658,-3.8091602,12
0.24322510000000003,0.031799316,-0.01977539,-2.3206108,0.8702290000000001,-3.038168,12
0.25457764,0.026123047000000003,-0.014953613000000001,-0.73282444,1.8015267,-4.10687,12
0.24743652,0.035095215,-0.006591797,-3.167939,0.66412216,-1.7862595000000001,12
0.24865723,0.040283203,-0.029541016,-2.9312978,1.0305344,-3.5572519999999996,12
0.24609375,0.03753662,-0.007751465,-4.0076336999999995,-0.045801528,-0.8396947,12
0.25109863,0.042297363,-0.016540527,-6.335878,0.015267176,1.2900764,12
0.24700928,0.03289795,-0.03277588,-4.9160304,0.8167939000000001,1.4427481000000002,12
0.24078369,0.040222167999999996,-0.019714355,-4.6106873,-0.99236643,-2.183206,12
0.25897217,0.032470703,-0.013183594,-3.870229,-0.96183205,0.45801526,12
0.25146484,0.040527344,-0.018127441,-3.6259542000000002,1.0992366000000002,1.1908396,12
0.23675537,0.056640625,-0.018615723,-3.4351146,1.091603,0.38167940000000006,12
0.23486328,0.043823242000000005,-0.016052246000000003,-3.0610687999999997,1.3206106000000002,-0.64122134,12
0.24096679999999995,0.062561035,-0.01727295,-1.8778626,1.4427481000000002,-3.4809160000000006,12
0.23071289,0.03869629,-0.008728027,0.03816794,0.22900763,-3.0305343,12
0.24865723,0.033508300000000005,-0.0078125,-1.0839695,0.7480916,-2.091603,12
0.24359131,0.03869629,-0.020690918,-0.46564886,0.07633588,-2.8778627,12
0.2633667,0.040405273,-0.03692627,-0.8015267,1.4961832,-2.5267177000000003,12
0.25958252,0.03765869,-0.0154418945,-0.03816794,0.67175573,-1.8015267,12
0.24743652,0.049621582000000004,-0.026000977,-0.32824427,0.39694658,-3.0610687999999997,12
0.24621582,0.028991700000000002,-0.017700195,-1.1450381,-0.129771,-0.41221374,12
0.258667,0.036987305,-0.02923584,-1.9236640999999999,0.8549618,-1.6183206,12
0.25836182,0.033447266,-0.008728027,0.3053435,1.3664121999999999,-2.1450381000000003,12
0.2479248,0.04095459,-0.022216797000000003,0.6259541999999999,1.8549619,0.030534351,12
0.23577881,0.034851073999999996,-0.01763916,3.3587787000000002,2.5648854,-0.6259541999999999,12
0.24755860000000002,0.042175292999999996,-0.014221191000000001,1.9465648999999998,0.6793893,-1.7862595000000001,12
0.24749756,0.038391113,-0.0014038085999999999,0.030534351,0.78625953,-2.2671757,12
0.24407959,0.033935547,-0.018310547,2.8244274,0.53435117,-3.648855,12
0.25073242,0.038024902,-0.020263672,1.3816794,0.26717559,-2.9389312000000003,12
0.2630005,0.03503418,-0.013000488000000001,-0.29007635,1.2671756,-4.0458016,12
0.24981689999999998,0.03765869,-0.015991211,0.5038168,1.5267175,-2.8931298,12
0.24182129,0.04284668,-0.021850586,1.1221374,0.6946565,-3.2671757,12
0.24725342,0.031188965,-0.021362305,-0.6870229,0.58778626,-3.3435113,12
0.25048828,0.030090332,-0.022460938,-1.8854961,1.2137405,-3.3358779999999997,12
0.24066162,0.029846191,-6.1035155999999994e-05,-2.6946564,0.5496183000000001,-4.152672,12
0.24432373,0.04284668,-0.01574707,-2.687023,0.35114503,-3.4274809999999998,12
0.23773193,0.03656006,-0.020263672,-2.8244274,0.9694656999999999,-1.7862595000000001,12
0.25054932,0.037841797,-0.008239746,-5.89313,0.45038167,-3.3282442000000003,12
0.25384520000000005,0.035461426000000004,-0.013122558999999999,-7.19084,0.061068702,-3.1068702,12
0.24530029999999997,0.033996582000000004,-0.0154418945,-9.519084,1.0763359,-1.2061069,12
0.25616455,0.023864746000000003,-0.0107421875,-9.267176,0.77862597,-1.8931297999999999,12
0.24902344,0.02960205,-0.024841309,-10.122137,1.038168,-0.99236643,12
0.25219727,0.040527344,-0.0073242188,-9.618319999999999,0.32824427,-1.1145038999999999,12
0.24615479,0.03894043,-0.008728027,-8.0,2.8091602000000004,-0.90839696,12
0.24810791,0.03857422,-0.018737793,-9.625955000000001,1.8931297999999999,-1.3587786,12
0.25891113,0.043640137,-0.019836426,-10.0992365,2.5954200000000003,-1.5496184,12
0.24389648,0.026611327999999997,-0.01953125,-10.381680000000001,2.183206,0.36641222,12
0.23883057,0.02947998,-0.027526855,-9.442748,2.4580152,-1.1984733,12
0.23797607,0.04046631,-0.039367676000000004,-13.572519,3.7633588,-0.77862597,12
0.25006104,0.035583496,-0.004333496,-15.412213000000001,1.9083970000000001,-1.5496184,12
0.23455810000000002,0.030761719,-0.01184082,-14.839695,4.236641400000001,-1.4274809,12
0.24774169999999998,0.035095215,0.004638672,-15.664123000000002,3.3053436,-0.7251908,12
0.23797607,0.04888916,-0.018920898000000002,-15.748092000000002,3.6564887,-1.259542,12
0.25329589999999996,0.035949707000000004,-0.030578612999999998,-15.198473000000002,3.6259542000000002,-0.7099236999999999,12
0.24572754,0.028198242000000002,-0.014160156,-14.9007635,4.0839696000000005,-2.519084,12
0.25604248,0.04699707,-0.021362305,-14.473282999999999,5.3816795,-4.5038165999999995,12
0.24511719,0.037231445,-0.016479492,-14.862596,5.2748094000000005,-3.534351,12
0.25152588,0.03302002,-0.013122558999999999,-16.145039,4.114504,-4.4198474999999995,12
0.23498535,0.03942871,-0.0007324219,-19.671754999999997,4.183206,-4.4885497,12
0.25195312,0.028747559,-0.025390625,-20.358778,5.412214,-6.068702,12
0.23773193,0.039733887,-0.01159668,-21.89313,5.3816795,-4.6870227,12
0.24078369,0.052978515999999996,-0.017150878999999997,-24.435114000000002,5.59542,-3.038168,12
0.25274658,0.043823242000000005,-0.017578125,-27.770992,8.152672,-1.6259542,12
0.23657227,0.049682617000000005,6.1035155999999994e-05,-27.12977,11.916031,2.6412212999999998,12
0.23413086,0.06378174,-0.02758789,-13.694656,16.259542,8.335877,12
0.25335693,0.043395996,-0.010253906,0.5114504,20.335878,10.473283,12
0.23590088,0.034606934,-0.018249512,3.9007633000000004,20.717558,17.08397,12
0.22967529999999997,0.04284668,-0.04840088,6.900763499999999,18.847328,20.12977,12
0.24102783,0.06365967,-0.068359375,31.793894,17.496183,30.259542,12
0.25408936,0.04937744,-0.09204101599999999,66.229004,11.267176,37.572517,12
0.27349854,0.037353516,-0.05621338,71.32825,-0.5954198,39.412212,12
0.26922607,0.012145996000000001,-0.049438477,37.389313,-15.534351000000001,36.267174,12
0.26361084,0.0030517578000000003,-0.06121826,-6.900763499999999,-17.503817,21.465649,12
0.26531982,0.018981934,-0.05645752,-50.320609999999995,-23.267176,6.0229006,12
0.25512695,0.034423828,-0.05053711,-68.62595,-30.641221999999996,-9.381680000000001,12
0.24877929999999995,0.03173828,-0.036621094,-66.908394,-37.198475,-24.900763,12
0.24737549,0.044555664,-0.04345703,-67.16031,-39.603054,-31.328245000000003,12
0.2442627,0.05218506,-0.023376465,-68.58015400000001,-37.931297,-38.55725,12
0.25982666,0.04473877,-0.026367188,-68.38931,-34.419846,-38.221375,12
0.25012207,0.046325684000000006,-0.005676269499999999,-67.099236,-30.824427000000004,-42.007633,12
0.26031494,0.036499023,-0.008178711,-68.48855,-25.885496,-36.55725,12
0.25231934,0.04071045,-0.008911133,-65.458015,-20.251910000000002,-34.12214,12
0.23907470000000003,0.025878906,-0.0015869141,-64.10687,-12.335877,-28.93893,12
0.2597046,0.02947998,-0.008544922,-55.35878,-4.6412214999999994,-22.244274,12
0.27404785,0.028320312,-0.016967773000000002,-38.015266,6.5038165999999995,-12.458015,12
0.30706787,0.020629883,0.0030517578000000003,-29.412214000000002,13.931297,3.1068702,12
0.29620359999999996,0.012939453,0.0053710938,-28.580153000000003,22.61832,12.893129,12
0.29577637,0.014221191000000001,-0.0138549805,-24.213741,27.458015000000003,27.450382,12
0.29632568,0.009765625,-0.024047852,-10.183207000000001,31.396946000000003,41.206109999999995,12
0.27563477,0.019714355,-0.014099121000000001,3.946565,31.19084,54.0,12
0.26849365,0.0087890625,-0.033996582000000004,5.442748,25.396946,57.908398,12
0.203125,-0.013977051,-0.039001465,-7.2442746,9.603053,53.053436,12
0.20635986,-0.006591797,-0.013427733999999998,-37.85496,-6.5801525,39.580154,12
0.23345947,-0.021911621000000003,0.017700195,-86.854965,-13.091603,27.89313,12
0.253479,-0.0038452148,0.005737304699999999,-120.48855,-20.641222,24.122137,12
0.277771,0.010070800999999999,-0.016906738,-132.1145,-25.190839999999998,10.122137,12
0.2732544,0.018737793,0.011657715,-137.32062,-28.12977,4.145038,12
0.2584839,0.019470215,-0.0018920898,-131.51908999999998,-29.862595000000002,-4.076336,12
0.22998047,0.03137207,0.0037841796999999997,-116.54198500000001,-22.847328,-8.160305000000001,12
0.21459961,0.029663086,-0.009216309,-89.35114,-16.022902,-4.0152674,12
0.21057129,0.036010742000000005,0.0037231445,-50.091602,-11.068703,3.29771,12
0.20355225,0.032165527,0.0049438477,-23.809160000000002,-8.236641,8.549619,12
0.22039795,0.017700195,-0.008178711,-26.633587,-2.687023,18.877863,12
0.21508789,0.018920898000000002,0.006713866999999999,-39.84733,3.778626,24.389313,12
0.22705078,0.024536132999999998,-0.004638672,-44.045803,11.343511999999999,28.67939,12
0.22998047,0.03125,-0.01928711,-37.419846,16.969465,31.770992,12
0.23150635,0.025024414,-0.024963378999999997,-21.984734,24.160304999999997,34.656490000000005,12
0.24755860000000002,0.034851073999999996,-0.008178711,-7.152672,29.709923,35.053436,12
0.2734375,0.032592773,-0.026489257999999998,4.59542,32.656490000000005,33.351147,12
0.27868652,0.034240723,-0.015014648,8.022901,35.87786,28.137404999999998,12
0.31018066,0.02130127,-0.017578125,-1.0305344,38.961834,21.702289999999998,12
0.32598877,0.014770508,-0.020629883,-14.694656,40.068703,13.442748000000002,12
0.35870359999999996,0.016723633,-0.05065918,-26.885496000000003,37.839695,2.7709923,12
0.34594727,0.019714355,-0.023803711,-22.351145000000002,30.740458,1.3053435,12
0.34466553,0.013671875,-0.038146973,-1.3740458,17.091601999999998,-12.114504,12
0.30377197,0.025695799999999998,-0.04949951,21.297710000000002,0.26717559,-26.61832,12
0.28173828,0.02178955,-0.022888184,41.10687,-21.51145,-46.305344,12
0.24176025,0.035705566,-0.0107421875,55.44275,-31.473282,-56.809162,12
0.25091553,0.008422852,0.0065307617,58.603054,-39.435116,-62.687022999999996,12
0.25616455,0.01550293,-0.017333984,36.015266,-45.10687,-69.0458,12
0.25744629999999996,0.02130127,-0.025390625,3.870229,-44.55725,-65.145035,12
0.2705078,0.026306152000000003,-0.016906738,-21.221375,-45.480915,-59.732826,12
0.23736572,0.033691406,-0.0010375977,-34.076336,-44.290077000000004,-60.633587,12
0.21972656,0.047424315999999994,-0.004272461,-30.76336,-38.55725,-56.351147,12
0.22717285,0.049621582000000004,0.011474608999999998,-12.80916,-34.679390000000005,-54.412212,12
0.21539307,0.04711914,-0.0107421875,8.137404,-29.603053999999997,-50.931297,12
0.19677734,0.046569824,-0.00030517580000000003,29.610687,-27.48855,-54.480915,12
0.21777344,0.042785645,-0.0040893555,38.374046,-22.38168,-52.305344,12
0.21832275,0.042236328,0.008178711,42.419846,-19.793894,-55.007633,12
0.21276855,0.04144287,-0.0134887695,42.862595,-17.740458,-54.801525,12
0.21618652,0.0345459,-0.009277344,36.190838,-13.0992365,-50.885498,12
0.2232666,0.018432617,-0.008178711,30.725191,-10.687023,-42.923664,12
0.21270752,0.023925781,-0.0032348633000000003,21.580153,-4.3053436,-27.839695000000003,12
0.20465088,0.018981934,-0.026000977,12.702291,1.8931297999999999,-12.961832000000001,12
0.19848633,0.01940918,-0.01171875,3.7175572,11.938931,3.4198472,12
0.22412110000000002,0.024414062,-0.043640137,0.64122134,19.389313,23.984734,12
0.24139404,0.022827148,-0.037841797,3.4274809999999998,26.770992,50.91603,12
0.27722168,0.031799316,-0.011108398,4.068702,36.0,72.12977,12
0.32513428,0.031982422,-0.00592041,-8.717557000000001,42.549618,90.78626,12
0.3168335,0.02166748,0.014892578,-34.21374,49.770992,95.9313,12
0.31353759999999997,0.034240723,-0.012451172,-61.389313,53.335876,93.25954399999999,12
0.32275390000000004,0.029785156,-0.02178955,-65.20611,53.992367,88.33588,12
0.27404785,0.050598145,-0.024475097999999997,-48.496179999999995,45.709922999999996,78.10687,12
0.23876953,0.062194824,-0.052734375,-25.977098,32.030533,65.61069,12
0.21740723,0.032409667999999996,-0.057006836,-10.458015,15.679389000000002,46.091602,12
0.18737793,0.03387451,-0.018798828,-10.923664,4.5725193,20.717558,12
0.21148682,0.01574707,-0.019165039,-26.885496000000003,-0.5801527,-1.8778626,12
0.26226807,0.024291992000000002,-0.028930664,-47.190838,-0.8396947,-13.038167999999999,12
0.3024292,0.020080566,-0.01171875,-58.549618,-6.0458016,-22.458015,12
0.2845459,0.018432617,-0.034729004,-69.816795,-9.854961,-30.465649,12
0.28063965,0.01373291,-0.031799316,-74.70992,-16.076335999999998,-31.877863,12
0.24627686,0.033813477,-0.041381836,-63.0229,-14.755725,-34.129771999999996,12
0.21490479,0.0390625,-0.033691406,-40.992367,-12.206107000000001,-31.213741,12
0.20062256,0.015197753999999999,-0.05029297,-20.473282,-9.832061,-22.977098,12
0.19494629,0.012084961000000002,-0.04510498,-8.526717,-7.458015400000001,-19.557251,12
0.20172119,0.027038574,-0.033996582000000004,-7.19084,-3.40458,-7.2671757,12
0.21044922,0.013549805,-0.04650879,-8.992367,-2.076336,1.4885496,12
0.22949219,0.011047363000000001,-0.03302002,-8.076336,2.3740457999999998,13.297709,12
0.2230835,0.025268555,-0.024719237999999998,-6.10687,7.2519083,19.496183,12
0.23144531,0.032104492000000005,-0.05621338,-0.23664123,10.977099,22.51145,12
0.2524414,0.030578612999999998,-0.034179688,8.396947,15.412213000000001,25.93893,12
0.2637329,0.023254395,-0.034301757999999995,11.862596,13.419847500000001,28.290077,12
0.25976562,0.031311035,-0.025695799999999998,6.9923663000000005,11.114504,25.099237,12
0.30444336,0.03564453,-0.016418457,-4.763358599999999,15.129771,22.923664000000002,12
0.31756592,0.02532959,-0.037963867000000005,-15.167939000000002,12.78626,11.351144999999999,12
0.31500244,0.038085938,-0.024902344,-18.305344,6.221374,0.18320611,12
0.31066895,0.037109375,-0.040893555,-22.679389999999998,-0.6870229,-17.160304999999997,12
0.26733398,0.041870117000000005,-0.0234375,-10.175572,-11.78626,-34.244274,12
0.22039795,0.023620605,-0.018432617,4.0,-23.595419,-55.343509999999995,12
0.17926025,0.041015625,-0.018737793,24.167938,-28.175572999999996,-70.938934,12
0.23779297,0.036071777,-0.0065307617,50.816795,-27.709923,-74.92367,12
0.28326416,0.031188965,0.005981445300000001,66.503815,-28.160304999999997,-62.969467,12
0.29211426,0.02758789,0.008422852,56.435116,-27.687022999999996,-50.74046,12
0.27410890000000004,0.019958496000000003,0.0072631836,24.717558,-25.977098,-38.587788,12
0.24737549,0.02722168,0.01977539,-7.091603299999999,-21.404581,-33.9771,12
0.25946045,0.021850586,-0.0045166016,-26.587785999999998,-12.442748,-27.931296999999997,12
0.23284912,0.029663086,-0.006286621,-29.816793,-8.244275,-21.755726,12
0.21636963,0.04833984400000001,0.0043945312,-16.160304999999997,-7.0,-20.42748,12
0.19934082,0.028076172000000003,-0.0044555664,2.1221373,-9.015267,-22.57252,12
0.19720459,0.030822753999999997,-0.005676269499999999,21.312977,-5.4503818,-26.595419,12
0.23022461,0.021240234,-0.0056152343999999995,28.954199,-3.6030532999999996,-24.076335999999998,12
0.23431396,0.025024414,0.002380371,22.656488,-3.3053436,-20.122137,12
0.24963379,0.019470215,-0.0043945312,6.9541984,-4.183206,-7.0534353,12
0.2529297,0.021484375,-0.014526367,-11.839694999999999,-5.4503818,10.183207000000001,12
0.2515869,0.026428222999999997,-0.012023926,-35.045803,-8.839694999999999,25.312977,12
0.25177002,0.020019531,-0.0009765625,-59.335876,-8.671756,35.78626,12
0.25616455,0.02960205,0.021850586,-80.87023,-2.6717557999999997,42.091602,12
0.30316162,0.027038574,0.013671875,-94.099236,4.9694657,52.77099200000001,12
0.30255127,0.040222167999999996,0.006591797,-98.19847,11.114504,57.12214,12
0.30364990000000003,0.037963867000000005,-0.0020141601999999997,-94.73283,20.183207,62.51145,12
0.29217529999999997,0.046813965,-0.022766112999999998,-79.79389,29.961832,68.40458000000001,12
0.2689209,0.05834961,-0.023376465,-41.687022999999996,25.320610000000002,67.83969,12
0.21569824,0.06201172,-0.035949707000000004,-11.328244,15.801526999999998,56.366413,12
0.1986084,0.050231934000000006,-0.035949707000000004,10.251908,8.80916,47.618320000000004,12
0.19610596,0.032165527,-0.03100586,16.946566,3.1984732000000005,24.48855,12
0.1953125,0.010498047,-0.026245117000000002,-2.1755726,-1.5496184,11.938931,12
0.23291016,0.012634277,-0.0021972656,-48.297709999999995,-2.3664122000000005,-1.9007633999999998,12
0.26654053,0.023498535,-0.016113281,-84.78626,-0.73282444,-8.167939,12
0.29003906,0.039245605,-0.036865234,-102.496185,-3.3587787000000002,-12.0992365,12
0.28588867,0.02758789,-0.015808105,-113.80916,-1.3740458,-18.030535,12
0.25994873,0.024719237999999998,-0.024658202999999997,-104.48092,1.0076336,-17.251910000000002,12
0.24298096,0.046875,-0.029174805,-76.79389,3.8167940000000002,-17.404581,12
0.21771239999999997,0.04437256,-0.07531738,-39.671757,3.2442749,-18.419847,12
0.19915771,0.022766112999999998,-0.057617188,-16.992367,5.4580154,-14.259541500000001,12
0.21124268,0.026367188,-0.06085205,-8.274809,8.038167999999999,-8.870229,12
0.21459961,0.032958984,-0.05871582,-8.984733,10.580152499999999,-4.656488400000001,12
0.22045898,0.015563965,-0.049865723,-14.419847500000001,13.129771,7.5038165999999995,12
0.22528076,0.032592773,-0.05895996,-3.5190839999999994,14.129771,15.740458499999999,12
0.22363281,0.022521972999999997,-0.049926757999999995,10.290076,17.053434,19.236639999999998,12
0.21948242,0.03552246,-0.06237793,16.198473,21.603054,26.595419,12
0.26324463,0.040649414,-0.057006836,27.969465000000003,21.068703,25.274809,12
0.27227783,0.034851073999999996,-0.037475586,34.48855,18.137404999999998,24.503817,12
0.27697754,0.03503418,-0.032165527,31.366413,13.664123000000002,21.587785999999998,12
0.29724120000000004,0.050354004,-0.036315917999999996,26.290077,9.763359,20.358778,12
0.26220703,0.04626465,-0.022949219,25.053434,5.480916000000001,4.8625956,12
0.26928709999999995,0.04937744,-0.030761719,33.320609999999995,1.70229,-5.9389315,12
0.2826538,0.048034667999999996,-0.028076172000000003,38.816795,-4.2061067,-16.251910000000002,12
0.28466797,0.033569336,-0.021118164,39.931297,-12.618319999999999,-28.312977000000004,12
0.30432129999999996,0.018981934,-0.032958984,32.015266,-18.526718,-42.755726,12
0.29766846,0.03277588,-0.010437011999999999,22.702289999999998,-23.793894,-53.396946,12
0.28363037,0.019897461,-0.0009155273,12.862596,-28.687022999999996,-69.41984599999999,12
0.25396729999999995,0.02911377,0.016113281,1.2977100000000001,-34.549618,-78.48855,12
0.21392822,0.033203125,0.0006103516000000001,-5.3053436,-36.580154,-92.40458000000001,12
0.22149658,0.048034667999999996,-0.008666992,-2.5114503,-34.48855,-94.83969,12
0.23651123,0.03503418,0.0018920898,13.801526999999998,-29.167938,-83.0,12
0.26843262,0.045166015999999996,0.016662598,40.526720000000005,-26.0,-59.083969999999994,12
0.2763672,0.05871582,0.010375977,61.244274,-23.038168,-36.015266,12
0.26757812,0.034179688,0.02355957,57.541985,-22.274809,-20.297710000000002,12
0.2592163,0.019348145,0.02142334,18.473282,-19.06107,-12.2213745,12
0.2265625,0.0146484375,0.036865234,-27.51145,-15.435115,-20.465649,12
0.22100830000000002,0.038391113,-0.011962891000000002,-58.007633,-13.572519,-25.076335999999998,12
0.20654297,0.03479004,0.01953125,-58.23664,-9.152672,-28.244274,12
0.20397949,0.042053223,0.013549805,-35.969467,-5.0305343,-23.801527,12
0.21765137,0.046936035,0.015136719,-7.114503999999999,-0.67175573,-10.145039,12
0.23059082,0.048461914,0.0028686523,10.839694999999999,8.572519,2.183206,12
0.26165770000000005,0.03387451,0.007446289,6.2519083,14.129771,23.793894,12
0.2541504,0.031433105,0.0063476562,-11.328244,18.267176,37.46565,12
0.25683594,0.027648926,0.005004883,-30.335878000000005,20.38168,50.450382,12
0.24761963,0.038208007999999995,-0.0072021483999999995,-50.519085,22.580153,62.23664,12
0.25378418,0.036132812,-0.01361084,-59.633587,27.51145,69.65649,12
0.27130127,0.034118652,-0.0107421875,-47.564884,30.068703000000003,78.96183,12
0.25909424,0.044921875,-0.01727295,-24.328245000000003,26.847328000000005,81.44275,12
0.26953125,0.047302246,-0.018676758,-3.2137403,25.694656,83.58778000000001,12
0.27215576,0.04864502,-0.015319824,8.129771,19.328245000000003,77.64886,12
0.27490234,0.041503906,-0.015991211,8.007633,16.38168,72.89313,12
0.3102417,0.02722168,-0.0029296875,-11.610686999999999,14.78626,59.030533,12
0.29968262,0.016113281,0.015136719,-50.15267,7.5114503,43.549618,12
0.29473877,0.037597656,-0.007873535,-81.63359,6.0992365,32.206109999999995,12
0.29779053,0.029846191,-0.005981445300000001,-101.96947,-2.29771,16.885496,12
0.24810791,0.032043457000000004,-0.0036621094,-111.938934,-4.4503818,8.526717,12
0.23138428,0.04107666,0.011779785,-118.48855,-2.1908397999999996,3.648855,12
0.21496582,0.050842285,-0.017456055,-108.27481,-3.7480917000000002,6.1984735,12
0.2300415,0.062438965,-0.006591797,-82.229004,-4.473282299999999,11.435115,12
0.23156738,0.07147217,0.004272461,-49.450382,-4.3816795,17.549618,12
0.21868896,0.06213379,-0.018493652,-20.541985,-3.4427480000000004,21.198473,12
0.21057129,0.054626465,-0.028137207,-7.40458,-1.961832,17.167938,12
0.21691895,0.041503906,-0.022155762000000002,-3.4351146,-2.1908397999999996,11.534351,12
0.20806885,0.040405273,-0.05065918,-2.2595419999999997,-6.2671757,-1.5038168,12
0.23840332,0.034240723,-0.016967773000000002,-5.5343513,-6.6106872999999995,-14.854961,12
0.26257324,0.038879395,-0.031677246,0.96183205,-4.076336,-26.435114000000002,12
0.27886963,0.033508300000000005,-0.059936523,17.725191,-3.2900763,-41.84733,12
0.29986572,0.025512695,-0.037597656,40.14504,-2.9847328999999996,-44.85496,12
0.28662109999999996,0.028259277000000003,-0.046569824,56.274809999999995,-7.6488547,-46.862595,12
0.25933838,0.025695799999999998,-0.06817627,68.64886,-11.557252,-51.076336,12
0.2442627,0.015991211,-0.05682373,65.24428,-12.404580000000001,-55.580154,12
0.22955322,0.0043945312,-0.044311523,55.9771,-12.893129,-53.83969499999999,12
0.21044922,0.016784668,-0.051574707000000004,59.068703,-10.206107000000001,-51.381679999999996,12
0.21813965,0.019104003999999997,-0.04724121,64.03817,-8.328244,-47.335876,12
0.21563720000000003,0.01953125,-0.044067382999999995,59.748093000000004,-6.0458016,-37.725190000000005,12
0.23944092,0.012329102,-0.039611816,57.572517000000005,4.091603299999999,-30.549618,12
0.24591064,0.03503418,-0.042419434000000006,64.57252,14.954199,-17.824427,12
0.265625,0.046936035,-0.01574707,76.01527,23.42748,-0.6793893,12
0.31237793,0.047973632999999995,-0.015197753999999999,94.0687,28.51145,19.12977,12
0.31939697,0.040649414,-0.024597168,108.938934,25.091601999999998,30.793894,12
0.27130127,0.028259277000000003,-0.009338379,112.84733,11.473283,27.412214000000002,12
0.2300415,0.013244628999999999,-0.005004883,95.68701999999999,-4.0305343,7.2137402999999996,12
0.20593262,0.032470703,-0.003540039,72.89313,-15.21374,-16.312977,12
0.25115967,0.02331543,-0.0014648438,57.793890000000005,-20.42748,-30.274809,12
0.24481201,0.031677246,0.015319824,38.74046,-25.541985,-42.312977000000004,12
0.24914551,0.033447266,0.008117675999999999,23.709923,-23.709923,-45.633587,12
0.2623291,0.030517577999999997,0.016479492,6.4198474999999995,-22.450382,-43.08397,12
0.25964355,0.033935547,0.010192871,-9.824428,-19.137404999999998,-45.23664,12
0.24462889999999998,0.051574707000000004,0.01953125,-20.198473,-11.076336,-44.366413,12
0.24847412,0.052734375,0.010986328,-13.78626,0.114503816,-29.76336,12
0.25543213,0.05224609400000001,0.014160156,10.480916,10.297709,-19.435114000000002,12
0.25024414,0.051696777,0.01739502,42.0229,19.503817,-12.412213000000001,12
0.24523926,0.053466797,0.014892578,62.038166000000004,25.053434,-7.793893300000001,12
0.25671387,0.045166015999999996,-0.020629883,72.39695,31.343512,-1.7633588,12
0.26434326,0.035583496,-0.0038452148,81.58015400000001,34.770992,1.351145,12
0.25860596,0.03527832,-0.022094727,79.25191,32.618320000000004,8.442748,12
0.23754883,0.018676758,0.012634277,60.81679499999999,30.816793,11.580152499999999,12
0.25299072,0.015563965,-0.007690429699999999,38.08397,28.152671999999995,9.9007635,12
0.21362305,0.015991211,0.006286621,18.87023,24.06107,6.2137402999999996,12
0.2421875,0.027404785,-0.020629883,7.4961834000000005,19.656488,8.183207000000001,12
0.25201416,0.025512695,-0.018554688,8.541985,13.656488000000001,12.7404585,12
0.27337646,0.05090332,-0.006164551,12.305344,10.091603,22.954199,12
0.27587890000000004,0.039855957000000004,-0.013916016000000002,8.557252,6.9541984,29.496183000000002,12
0.26867676,0.033508300000000005,0.0006713867,-13.755725,4.7251905999999995,31.335878000000005,12
0.27301025,0.018615723,-0.0034790040000000004,-43.732826,3.6564887,27.244274,12
0.26934814,0.019104003999999997,-0.006042480500000001,-61.908398,4.1603055,19.832062,12
0.24908447,0.03729248,-0.00982666,-66.96183,3.9541983999999997,11.389313000000001,12
0.22784424,0.045043945,-0.024597168,-53.076336,2.534351,-0.9236641,12
0.25616455,0.04815674,-0.048217773,-39.17557,2.793893,-11.183207000000001,12
0.25994873,0.03265381,-0.013000488000000001,-33.793890000000005,2.1526718,-17.068703,12
0.22552489999999997,0.024841309,-0.026367188,-26.80916,-1.6412214,-19.648854999999998,12
0.23614502,0.032348632999999995,-0.027954102,-16.580153,-4.183206,-23.961832,12
0.2220459,0.024780273,-0.03967285,-9.893129,-3.1908397999999996,-18.603054,12
0.23815918,0.036376953,-0.026611327999999997,-12.832061,-2.2595419999999997,-9.404580000000001,12
0.24621582,0.029785156,-0.040771484,-12.679389,-2.5954200000000003,3.3893129999999996,12
0.25335693,0.030761719,-0.03112793,-13.030535,-0.19847329,18.229008,12
0.24890137,0.024658202999999997,-0.03704834,-12.419847500000001,-3.2442749,24.496183,12
0.23992919999999998,0.007385254,-0.026916503999999997,-16.824427,-5.9160304,21.977098,12
0.22338867,0.026428222999999997,-0.044799805,-26.145039,-8.633588,11.496183,12
0.24578857,0.023132324,-0.025756836,-29.503816999999998,-5.076336,0.5954198,12
0.26245117,0.019104003999999997,-0.028930664,-19.847328,-5.259542,-4.3511453,12
0.2826538,0.017211914,-0.03265381,-13.083969,-4.7938933,-8.732824,12
0.26867676,0.018249512,-0.03515625,-16.335878,-5.4351144,-8.335877,12
0.25549316,0.028686523,-0.03314209,-18.89313,-5.1374044,-12.992367,12
0.2548828,0.020080566,-0.059509277,-18.664122,-3.1221373,-9.381680000000001,12
0.2208252,0.03125,-0.04559326,-12.427481,0.6259541999999999,-8.7786255,12
0.23883057,0.026733398,-0.050964355,-1.7404580000000003,2.572519,-5.6488547,12
0.21948242,0.029296875,-0.04901123,3.038168,4.9389315,2.1145039,12
0.23797607,0.036132812,-0.054260254,13.129771,9.709924,9.526717,12
0.2559204,0.025756836,-0.05322265599999999,17.282442,12.2213745,14.496182999999998,12
0.24505615,0.035705566,-0.03942871,22.694656,14.358779,20.137404999999998,12
0.25061035,0.044677734000000004,-0.06060791,26.816793,13.290076000000001,18.259542,12
0.26495359999999996,0.023620605,-0.060180664,28.335878000000005,10.251908,10.312977,12
0.29058838,0.034362792999999996,-0.039855957000000004,26.48855,9.396947,6.4961834000000005,12
0.28466797,0.029174805,-0.045043945,20.320610000000002,3.4351146,-2.8854961,12
0.25,0.019104003999999997,-0.036865234,14.656488000000001,-5.9923663000000005,-15.297709,12
0.23138428,0.030212402000000003,-0.051879882999999995,11.732824,-12.251908,-23.61832,12
0.23992919999999998,0.028564452999999997,-0.040527344,17.610687,-13.351145,-31.007633000000002,12
0.24084473,0.024719237999999998,-0.036804199999999995,19.992367,-12.969465,-30.648854999999998,12
0.23522949,0.027160645,-0.030700684,17.93893,-11.022901,-28.442749,12
0.2555542,0.038269042999999996,-0.017456055,16.374046,-9.396947,-21.877863,12
0.26141357,0.02557373,-0.023803711,16.358778,-5.5648856,-20.10687,12
0.24920654,0.032043457000000004,-0.022888184,16.312977,-2.2366412,-17.152672,12
0.22491455,0.0126953125,-0.021911621000000003,18.343512,0.73282444,-14.80916,12
0.23669434,0.03717041,-0.02557373,21.358778,1.6412214,-15.236641,12
0.23040771,0.030822753999999997,-0.008178711,21.06107,4.0992365,-15.755725,12
0.23864746,0.03277588,-0.008972168,19.305344,6.9465647,-12.465649,12
0.25299072,0.030395507999999998,-0.02130127,15.801526999999998,12.167939,-8.717557000000001,12
0.25109863,0.031799316,-0.0146484375,14.351145,14.305344,-4.9389315,12
0.25610352,0.020507812,-0.008056641,17.679389999999998,18.297710000000002,-5.40458,12
0.25610352,0.030212402000000003,-0.039611816,21.885496,19.763360000000002,-2.053435,12
0.2720337,0.032409667999999996,-0.018859863,30.656488,17.419847,-3.40458,12
0.2501831,0.025634766,-0.031188965,32.44275,13.534351000000001,-2.129771,12
0.25860596,0.010620117,-0.030944824,20.480917,8.152672,-0.52671754,12
0.25048828,0.022521972999999997,-0.047668457000000004,8.480916,5.625954,4.8396945,12
0.26055908,0.031677246,-0.023071289,2.4198472,3.0076337000000004,13.954199,12
0.2421875,0.046569824,-0.009399414,-4.633588,4.4274807,19.473282,12
0.24273682,0.03857422,-0.006042480500000001,-12.450381,5.5496182,25.251910000000002,12
0.23931885,0.044006348,-0.0037841796999999997,-11.770992,7.923664,27.687022999999996,12
0.23706055,0.054260254,0.0032348633000000003,-0.70229006,8.450381,26.404581,12
0.24755860000000002,0.049804688,0.0068969727,6.5114503,7.778625999999999,19.557251,12
0.23651123,0.038269042999999996,-0.0095825195,-1.8778626,4.4961834000000005,9.717557000000001,12
0.22729492,0.030456543,0.009399414,-10.893129,1.1221374,-8.702291,12
0.24090576,0.046081542999999996,-0.0072631836,-14.343511999999999,0.41221374,-20.450382,12
0.24102783,0.036315917999999996,-0.0032348633000000003,-19.42748,-4.8396945,-27.312977000000004,12
0.24359131,0.044616699999999995,0.022644043,-26.625953999999997,-4.1221375,-31.145039,12
0.2658081,0.038208007999999995,0.0026855469,-30.534351,2.3664122000000005,-26.274809,12
0.29138184,0.034057617000000005,0.012390136999999999,-30.29771,9.076336,-12.717557000000001,12
0.24975586,0.04626465,0.022888184,-28.839695000000003,13.343511999999999,-0.35877863,12
0.2376709,0.04699707,-0.0009155273,-31.29771,19.259542,-0.8778626,12
0.25897217,0.043273926,0.0018920898,-24.42748,28.167938,2.5877862,12
0.2467041,0.05505371,-0.020568848,7.9465647,36.007633,5.587786,12
0.24871826,0.057800292999999996,-0.020568848,62.40458,37.992367,3.3129769999999996,12
0.24456787,0.032409667999999996,-0.032836914,102.01527,35.473279999999995,-1.70229,12
0.26928709999999995,0.0061035156000000005,-0.028015137000000002,113.03817,27.564885999999998,1.6946564999999998,12
0.2642212,0.0061035156000000005,-0.030334472999999997,103.83969,22.770992,2.7328243,12
0.27130127,0.0021362305,-0.018371582,73.64121999999999,14.679389000000002,0.6488550000000001,12
0.2682495,0.0026855469,-0.018188476999999998,39.648853,6.1221375,2.4351146,12
0.25164795,-0.00579834,-0.013427733999999998,2.091603,-1.5343511,-0.84732825,12
0.24066162,0.0068359375,-0.0087890625,-24.587785999999998,-8.030535,-5.4961834000000005,12
0.23754883,0.015808105,-0.010192871,-40.0229,-8.816792999999999,-11.572519,12
0.25598145,0.03112793,0.010131836,-48.053436,-4.038168,-8.412213000000001,12
0.24530029999999997,0.04699707,0.008605957,-44.76336,2.29771,2.442748,12
0.26153564,0.07409668,-0.002380371,-25.099237,5.412214,19.465649,12
0.27197266,0.067871094,-0.0033569335999999996,10.770992,8.412213000000001,39.53435,12
0.28668213,0.058898926,0.00018310549999999998,43.656490000000005,10.496183,51.664124,12
0.28961182,0.056518555,0.0099487305,60.709922999999996,3.5190839999999994,53.885498,12
0.26312256,0.042175292999999996,-0.003540039,59.419846,-3.9389312000000007,42.503820000000005,12
0.26324463,0.028625487999999998,0.010559082,40.55725,-17.465649,22.923664000000002,12
0.2322998,0.0010375977,0.009094238000000001,-0.03816794,-27.496183000000002,-2.2442749,12
0.2479248,0.014343261999999999,-0.010864258,-36.16794,-31.022902000000002,-21.465649,12
0.260437,0.010864258,0.030334472999999997,-53.687022999999996,-34.770992,-33.076336,12
0.25482178,0.015380858999999998,0.010925293,-65.62595,-34.931297,-39.992367,12
0.23596191,0.008972168,-6.1035155999999994e-05,-73.25954399999999,-28.458015000000003,-33.870228000000004,12
0.25445557,0.022338867000000002,0.008117675999999999,-66.29771,-16.396946,-32.15267,12
0.23248291,0.008300781,0.010314941,-46.816795,-5.0992365,-17.167938,12
0.22900389999999998,0.03326416,-0.00030517580000000003,-19.625954,5.442748,2.6412212999999998,12
0.22100830000000002,0.016235351999999998,-0.021240234,19.229008,12.488549,11.969465,12
0.20928955,0.014465332,-0.011352538999999998,47.297709999999995,16.221375,15.274809,12
0.22961426,0.020935059,-0.04663086,68.67175,17.099237,17.580153,12
0.2600708,0.00018310549999999998,-0.020141601999999998,70.9313,11.007633,15.198473000000002,12
0.26281738,-0.020812988,-0.019165039,51.21374,1.5343511,12.198473,12
0.2584839,-0.028930664,-0.010070800999999999,3.0,-6.885496000000001,3.3129769999999996,12
0.25274658,-0.021911621000000003,-0.028320312,-50.679390000000005,-11.977099,-11.068703,12
0.24462889999999998,0.0020141601999999997,-0.014465332,-82.0229,-15.389313000000001,-16.190839999999998,12
0.23571777,-0.0040893555,-0.025512695,-76.63359,-15.923664000000002,-19.587785999999998,12
0.25994873,0.020446777,-0.037719727,-56.923664,-14.343511999999999,-13.198473000000002,12
0.24932861,0.018249512,-0.022277832,-35.396946,-13.068703,-7.5648856,12
0.23211669999999998,0.014221191000000001,-0.04547119,-30.671754999999997,-11.366412,-5.0076336999999995,12
0.25909424,0.016906738,-0.039001465,-32.603054,-8.290076,-1.4503816,12
0.26367188,0.018249512,-0.029174805,-29.442749,-8.167939,-0.66412216,12
0.25720215,0.007080078,-0.042541504,-28.122137,-7.29771,-3.3282442000000003,12
0.25878906,0.008911133,-0.039611816,-28.900763,-9.389313000000001,-6.068702,12
0.24694824,0.0010986328,-0.04663086,-29.152671999999995,-11.656488000000001,-9.770992,12
0.24694824,0.01953125,-0.053771973,-30.076335999999998,-12.763359,-9.022901,12
0.24414062,0.0052490233999999995,-0.05529785,-26.396946000000003,-11.374044999999999,-11.946565,12
0.24279785,0.018127441,-0.05078125,-22.0,-9.21374,-10.335877,12
0.23260498,0.0071411133,-0.041931152,-19.305344,-5.3053436,-6.2977099999999995,12
0.2526245,0.0115356445,-0.05078125,-16.442749,-0.41221374,-3.5190839999999994,12
0.23748779999999997,0.023071289,-0.047973632999999995,-9.969465,3.8549618999999997,2.923664,12
0.23260498,0.01159668,-0.042785645,-4.778626,7.3664119999999995,9.122137,12
0.2244873,0.024047852,-0.0501709,2.6641220000000003,12.022901,15.40458,12
0.23413086,0.028320312,-0.034240723,10.610686999999999,16.099237,17.923664000000002,12
0.23449707,0.037841797,-0.039611816,14.7786255,22.885496,20.694656,12
0.24725342,0.03930664,-0.044311523,22.625954,25.419847,21.450382,12
0.24816895,0.03540039,-0.04284668,32.08397,24.183207,18.10687,12
0.23675537,0.03729248,-0.030273438,37.53435,21.885496,10.267176,12
0.26165770000000005,0.012939453,-0.034362792999999996,35.198475,18.89313,0.19083970000000003,12
0.24145508,0.033203125,-0.031433105,27.343512,12.694656,-9.396947,12
0.23962402,0.028869628999999997,-0.031066895,15.702291,6.8549619999999996,-20.366413,12
0.27819824,0.026062012000000002,0.0014648438,6.6870227,2.4580152,-26.099237,12
0.27947998,0.038269042999999996,-0.020935059,-3.0305343,-0.66412216,-26.358778000000004,12
0.27416992,0.03540039,-0.016906738,-16.473282,-3.4351146,-31.931296999999997,12
0.24761963,0.033996582000000004,-0.018066406,-26.32061,-5.145038,-33.229008,12
0.24261475,0.031433105,-0.0026245116999999997,-28.57252,-4.7862597000000004,-34.648853,12
0.24755860000000002,0.03918457,-0.017944336,-24.160304999999997,-2.6717557999999997,-31.526718,12
0.25299072,0.049987792999999996,0.0036621094,-8.908397,3.8091602,-24.854961,12
0.25579834,0.0345459,-0.027282715,18.335878,4.0229006,-15.0992365,12
0.26306152,0.030822753999999997,-0.032165527,53.81679499999999,6.70229,-1.1297709999999999,12
0.26947020000000005,0.018371582,-0.030395507999999998,81.9542,3.70229,8.068703,12
0.26818848,0.0073242188,-0.034057617000000005,93.503815,1.5725191,13.106871,12
0.26812744,0.002319336,-0.016784668,85.80915999999999,-3.2290077,13.740458499999999,12
0.26098633,-0.011352538999999998,-0.02178955,70.43511,-7.9160304,13.328244,12
0.24975586,-0.004699707,-0.012756348,51.587788,-12.885496,13.938931,12
0.24877929999999995,0.0079956055,-0.010498047,27.305344,-14.091603,12.21374,12
0.24066162,0.012817383,-0.008666992,2.3282442000000003,-17.57252,11.641221,12
0.24572754,0.016723633,-0.002380371,-26.587785999999998,-15.122137,8.717557000000001,12
0.2557373,0.009521484,-0.010070800999999999,-42.809162,-18.175573,2.687023,12
0.23010254,0.026977539,0.0064697266000000005,-52.916030000000006,-18.167938,-1.9083970000000001,12
0.22662354,0.016235351999999998,0.018188476999999998,-47.923664,-16.366413,-8.580152499999999,12
0.23486328,0.015930176,0.007629394499999999,-39.08397,-9.503817,-10.519084,12
0.22521973,0.021972656,-0.02935791,-38.725190000000005,-5.221374,-5.8702292,12
0.21771239999999997,0.013549805,-0.025878906,-41.381679999999996,2.4885497,4.5801525000000005,12
0.22406006,0.027526855,0.002746582,-37.84733,11.534351,10.480916,12
0.22290039,0.050720215,-0.010131836,-25.022902,19.396946,18.374046,12
0.2562256,0.04058838,-0.018981934,-4.3816795,23.389313,25.503817,12
0.24829102,0.03778076,-0.020141601999999998,6.625953999999999,25.763360000000002,30.832062,12
0.27642822,0.036865234,-0.03491211,11.984733,25.38168,31.343512,12
0.27813720000000003,0.039245605,-0.02532959,4.328244000000001,19.053434,27.824427000000004,12
0.27539062,0.032592773,-0.025512695,-10.061069,11.80916,15.694656,12
0.25329589999999996,0.028869628999999997,-0.040039062,-19.496183,9.19084,6.2900763,12
0.24530029999999997,0.041503906,-0.037902832000000004,-24.213741,4.6488547,-3.534351,12
0.24291992,0.046569824,-0.03479004,-32.480915,1.9541985,-7.2290077,12
0.23522949,0.036132812,-0.043701172,-33.267174,-0.65648854,-8.519084,12
0.23199463,0.03704834,-0.04443359400000001,-34.17557,-0.96183205,-10.206107000000001,12
0.24249268,0.053894042999999996,-0.03137207,-23.603054,-0.29007635,-9.152672,12
0.24841309,0.053527832000000004,-0.024658202999999997,1.3206106000000002,-0.7480916,-5.5114503,12
0.2675171,0.046691895,-0.018432617,26.709923,-4.145038,-5.809159999999999,12
0.25830078,0.04046631,-0.022766112999999998,28.557251,-5.236641400000001,-12.183207000000001,12
0.26708984,0.046447754,-0.021728516,21.595419,-4.603053599999999,-16.755726,12
0.24993896,0.03100586,-0.025695799999999998,19.839695000000003,-6.3893127,-23.57252,12
0.24822998,0.026855469,0.007873535,17.267176,-6.6335880000000005,-28.854961,12
0.25610352,0.028137207,0.0007324219,14.129771,-5.0076336999999995,-33.648853,12
0.24023438,0.03515625,-0.012390136999999999,10.511451,-5.015267400000001,-38.755726,12
0.23455810000000002,0.01965332,-0.009765625,5.0458016,-2.5801528,-41.198475,12
0.24060059,0.023986816,-0.003540039,5.89313,0.34351146,-35.183205,12
0.23779297,0.017578125,-0.016662598,9.755725,2.9847328999999996,-28.992366999999998,12
0.2514038,0.030273438,-0.01171875,13.160305,6.3129773,-20.755726,12
0.24822998,0.011352538999999998,-0.026306152000000003,16.854961,8.251908,-10.0,12
0.25042725,0.013366699,-0.020263672,19.038168,7.9160304,-1.5496184,12
0.255188,0.030395507999999998,-0.019592285,15.78626,9.007633,5.4961834000000005,12
0.25933838,0.018737793,-0.020996094,6.4351144,9.2595415,5.778626,12
0.23797607,0.023620605,-0.016174316,-4.038168,7.862595599999999,7.6488547,12
0.23297119,0.035095215,0.0028076171999999997,-10.435115,7.0458016,8.0992365,12
0.24273682,0.045898438,-0.029296875,-15.992367000000002,6.8778625,7.5114503,12
0.24499512,0.04333496,-0.010498047,-20.961832,5.412214,8.442748,12
0.2501831,0.036254882999999995,-0.019714355,-24.099237,8.282442999999999,7.778625999999999,12
0.25750732,0.034179688,-0.017944336,-23.091601999999998,6.2671757,4.0229006,12
0.25787354,0.047302246,-0.019104003999999997,-21.267176,7.603053599999999,1.5954198999999998,12
0.25323486,0.04443359400000001,-0.030639648,-14.725191,6.519083999999999,-2.557252,12
0.24761963,0.034851073999999996,-0.029907227,-9.152672,5.9541984,-7.0610685,12
0.24645996,0.040405273,-0.034057617000000005,-4.0152674,4.0305343,-11.366412,12
0.2598877,0.037353516,-0.038757323999999996,0.77099234,2.9694657,-14.824428,12
0.2711792,0.033203125,-0.020446777,2.2748091,1.519084,-14.21374,12
0.2592163,0.021728516,-0.03552246,2.2595419999999997,-1.1526718,-17.671754999999997,12
0.25524902,0.026977539,-0.040771484,-2.7480917000000002,-4.7099237,-17.839695000000003,12
0.24603271,0.014892578,-0.02947998,-4.587786,-4.740458,-19.755726,12
0.25341797,0.014221191000000001,-0.011047363000000001,-5.396946400000001,-5.8244276,-16.0,12
0.24731445,0.018554688,-0.010375977,-10.78626,-4.946564700000001,-15.335876999999998,12
0.23217773,0.025634766,-0.015625,-19.137404999999998,-5.9160304,-9.366412,12
0.24835205,0.023010253999999997,-0.014160156,-23.816793,-5.4503818,-4.1755724,12
0.24420166,-0.004760742,-0.02935791,-27.603053999999997,-4.6183205,0.5801527,12
0.23907470000000003,0.027282715,-0.029296875,-32.190838,-3.8244274,4.366412,12
0.24481201,0.039123535,-0.010314941,-34.389313,-0.19847329,9.923664,12
0.24694824,0.047302246,-0.014343261999999999,-33.0,2.9923662999999996,12.587786999999999,12
0.26037598,0.03918457,-0.014526367,-24.679389999999998,7.480916000000001,18.854961,12
0.26708984,0.040222167999999996,-0.018066406,-16.816793,6.0458016,18.022902,12
0.25402832,0.047058105,-0.0146484375,-13.015267,6.557252,17.404581,12
0.24688720000000003,0.034057617000000005,-0.0071411133,-13.290076000000001,5.89313,16.732824,12
0.25482178,0.04046631,-0.025817871000000003,-9.793892999999999,2.8473282,13.114504,12
0.24438477,0.03918457,-0.020874023000000002,-8.748092,1.4885496,10.603053,12
0.24310303,0.034484863,-0.041381836,-10.137404,-1.7557251,9.595419999999999,12
0.25982666,0.050048828,-0.02355957,-7.4503818,-3.6412212999999998,9.320611,12
0.25305176,0.06390381,-0.04095459,-1.389313,-2.8473282,5.6946564,12
0.24108887,0.051391599999999996,-0.018798828,2.0839694,-3.3358779999999997,0.45801526,12
0.23809814,0.04626465,-0.0061035156000000005,4.5419846,-4.343511599999999,-1.3435115,12
0.23529053,0.03265381,-0.019104003999999997,7.2671757,-1.8244275,-3.5190839999999994,12
0.24664307,0.047058105,-0.013305663999999998,11.687023,-1.2977100000000001,-3.7175572,12
0.24755860000000002,0.046691895,0.0005493164,15.297709,-0.33587787,-4.152672,12
0.24237060000000002,0.04034424,0.0015869141,18.045801,3.1450381000000003,-2.4580152,12
0.24700928,0.034240723,-0.010986328,21.099237,4.6183205,-2.167939,12
0.24133301,0.03857422,0.012268066000000001,20.93893,5.526717700000001,-1.1297709999999999,12
0.24645996,0.04748535,-0.0015869141,18.931297,6.2519083,-1.9847328999999998,12
0.24407959,0.036010742000000005,-0.012756348,16.93893,6.396946400000001,-0.6793893,12
0.24609375,0.034973145,-0.016357422,16.801527,6.89313,-2.4351146,12
0.23803711,0.036865234,-0.008300781,12.2213745,7.290076299999999,-0.9312976999999999,12
0.25891113,0.028930664,-0.01977539,11.664123,6.923664,-0.9694656999999999,12
0.26306152,0.032470703,-0.017028809,14.946565,6.1374044,-1.6183206,12
0.27581787,0.039245605,-0.018859863,20.305344,4.6412214999999994,-0.259542,12
0.25787354,0.03375244,-0.024169922000000003,20.717558,0.60305345,-1.3664121999999999,12
0.258667,0.035888672,-0.011779785,10.526717,-1.7251908999999999,-9.251908,12
0.24230957,0.022827148,-0.016723633,-4.6793895,-5.412214,-12.977099,12
0.24340820000000005,0.034973145,-0.018188476999999998,-13.908397,-4.587786,-13.893129,12
0.23419189999999998,0.027832031,-0.028137207,-11.877863,-4.7557254,-12.625955000000001,12
0.24133301,0.04449463,-0.021606445,-8.038167999999999,-1.0534351,-7.931298,12
0.22912598,0.04119873,-0.011657715,-3.053435,2.961832,1.1984733,12
0.24487305,0.028991700000000002,-0.022094727,8.129771,5.40458,4.2519083,12
0.24212646,0.037963867000000005,-0.019226074,10.236641,7.9465647,5.6793895,12
0.26391602,0.039978027,-0.014038086000000002,10.580152499999999,7.931298,5.091603299999999,12
0.26141357,0.039855957000000004,-0.016479492,9.694656,5.183206,-1.5954198999999998,12
0.26965332,0.039733887,-0.0048217773,3.465649,4.0076336999999995,-5.7328243,12
0.24743652,0.03540039,-0.0004882813,-2.8854961,2.4351146,-10.511451,12
0.2515869,0.036987305,-0.0107421875,-5.671755999999999,1.8244275,-12.847328,12
0.24798584,0.033569336,-0.030456543,-0.6335878,1.3282443000000002,-9.78626,12
0.24487305,0.048217773,-0.016601562,2.7175572,2.0992367,-6.969465700000001,12
0.24182129,0.03857422,-0.03918457,5.2748094000000005,2.572519,-5.519083999999999,12
0.24609375,0.045166015999999996,0.004760742,6.152672,0.007633588,-1.351145,12
0.24346924,0.042907715,-0.025695799999999998,9.038167999999999,2.206107,-2.534351,12
0.26263428,0.035461426000000004,-0.020996094,9.656488000000001,1.091603,-4.59542,12
0.26916504,0.032836914,-0.008666992,6.1603055,1.3969465,-5.5419846,12
0.26446533,0.033081055,-0.008300781,5.4351144,2.0458016,-6.80916,12
0.23602295,0.032958984,-0.0015258789000000001,4.7251905999999995,2.572519,-6.2137402999999996,12
0.24987793,0.032592773,-0.027770996000000003,3.3358779999999997,1.2519083999999998,-4.7328243,12
0.24145508,0.033508300000000005,-0.019348145,3.0229008,1.2519083999999998,-4.145038,12
0.23815918,0.04833984400000001,-0.019104003999999997,-1.5267175,-0.5038168,-0.22900763,12
0.24688720000000003,0.031921387,-0.01159668,-2.1526718,1.5496184,1.0229008,12
0.25280762,0.03277588,-0.009033203,-1.9312977,1.1679389999999998,0.90076333,12
0.27209473,0.035827637,-0.028503418,-0.9541985000000001,3.7709922999999996,2.2366412,12
0.26800537,0.037719727,-0.025756836,-2.221374,2.2824428,3.4274809999999998,12
0.26763916,0.03314209,-0.00012207030000000001,-4.633588,0.9847328000000002,0.6335878,12
0.25854492,0.027709961,-0.009338379,-6.2671757,-0.2977099,-0.73282444,12
0.25170898,0.034606934,-0.020874023000000002,-7.8015265,-0.114503816,-1.0534351,12
0.24047852,0.03894043,-0.018371582,-9.175572,-1.1374046,-0.015267176,12
0.23425293,0.033508300000000005,-0.007507324,-10.343511999999999,-1.2061069,3.6259542000000002,12
0.23529053,0.039855957000000004,-0.008972168,-9.732824,0.099236645,6.335878,12
0.23797607,0.037841797,-0.016418457,-7.328244000000001,2.221374,5.778626,12
0.27038574,0.03894043,-0.020568848,-4.076336,0.7480916,5.236641400000001,12
0.27215576,0.03717041,-0.0146484375,-3.1908397999999996,0.84732825,3.6870230000000004,12
0.26928709999999995,0.03845215,0.0028076171999999997,-4.961832,-0.64122134,-3.0458016,12
0.26495359999999996,0.041015625,0.010253906,-9.091603,-1.7099236,-5.946564700000001,12
0.25476074,0.047058105,-0.022583007999999998,-10.022901,-1.4198473999999999,-7.656488400000001,12
0.22961426,0.037109375,-0.018920898000000002,-8.770992,-2.5038167999999996,-7.7480917,12
0.23150635,0.043640137,-0.02166748,-8.610686999999999,-1.1068702,-5.3053436,12
0.22900389999999998,0.048950195,-0.004211426,-6.328244000000001,-1.1755725000000001,-2.1526718,12
0.24639893,0.034179688,-0.014465332,-5.4503818,1.9236640999999999,1.6335878000000001,12
0.24957275,0.026000977,-0.013244628999999999,-1.4427481000000002,2.312977,0.091603056,12
0.24951172,0.037109375,-0.020080566,2.1221373,3.2671757,-2.9389312000000003,12
0.25408936,0.02722168,-0.02520752,3.4274809999999998,1.8015267,-5.7709923,12
0.24597168,0.046813965,0.0015869141,1.6793894,3.2595419999999997,-5.2519083,12
0.24273682,0.026611327999999997,-0.022094727,0.19847329,2.3969467,-5.2977099999999995,12
0.23596191,0.032165527,-0.0014038085999999999,1.4122137,6.5725193,-4.557252,12
0.23278809,0.04144287,-0.013977051,3.7709922999999996,6.862595599999999,0.8778626,12
0.24456787,0.0423584,0.0025024414000000004,9.488549,9.916031,4.59542,12
0.2555542,0.034301757999999995,-0.014709473,15.603053,8.129771,5.8015265,12
0.24578857,0.042785645,-0.030151367000000002,16.404581,5.2137402999999996,3.2290077,12
0.2512207,0.033569336,-0.016540527,16.412214000000002,3.7251909,0.27480915,12
0.25756836,0.048217773,-0.024047852,13.709923999999999,2.312977,-3.4122138,12
0.25482178,0.032409667999999996,-0.011047363000000001,13.267176000000001,-0.007633588,-3.7404580000000003,12
0.25109863,0.030944824,-0.0052490233999999995,12.969465,0.58778626,-3.0152671000000004,12
0.25439453,0.03186035,-0.0045776367,15.78626,-0.061068702,-0.8854962,12
0.24047852,0.035461426000000004,-0.013244628999999999,16.08397,0.8015267,1.0229008,12
0.25628662,0.02166748,-0.01361084,12.587786999999999,1.5038168,0.4274809,12
0.25128174,0.02935791,0.0025024414000000004,9.496183,0.9465648999999999,-2.572519,12
0.26733398,0.021118164,-0.012451172,4.740458,1.0839695,-5.763358599999999,12
0.26599120000000004,0.033447266,-0.0031738281,-0.8091603,-2.4732822999999997,-11.229008,12
0.26397705,0.023925781,0.0018310547,-5.8778625,-3.946565,-10.022901,12
0.23052979,0.01977539,-0.01928711,-7.1297708,-4.763358599999999,-10.618319999999999,12
0.24713135,0.021118164,-0.016540527,-7.091603299999999,-3.6259542000000002,-5.3893127,12
0.24688720000000003,0.0134887695,-0.0064697266000000005,-7.587786,-1.4961832,-0.6870229,12
0.24267578,0.028442382999999998,-0.017333984,-9.961832000000001,-1.4122137,2.572519,12
0.24017334,0.028381347999999997,-0.0107421875,-7.076336,-2.5801528,3.2595419999999997,12
0.25024414,0.022399902000000003,-0.012573242,-3.8778627,-1.9923664,0.49618322,12
0.25329589999999996,0.0234375,-0.0099487305,-6.2061067,-1.2366412,-0.26717559,12
0.26367188,0.034729004,-0.0045166016,-4.5343513,-4.1984735,1.6564884999999998,12
0.2512207,0.038024902,-0.021362305,8.885496,-3.0839694,0.9312976999999999,12
0.24737549,0.025146484,-0.011474608999999998,8.763359,-1.0152671,0.77099234,12
0.25421143,0.02331543,-0.026916503999999997,-5.4885497,1.3129771000000001,0.259542,12
0.2298584,0.018676758,-0.0014038085999999999,-23.534351,3.091603,1.9312977,12
0.25372314,0.02960205,-0.02130127,-25.091601999999998,3.4427480000000004,4.7175574000000005,12
0.25378418,0.04309082,-0.020141601999999998,-17.320610000000002,6.1374044,6.0458016,12
0.25610352,0.032287598,-0.022338867000000002,-14.946565,4.7251905999999995,7.114503999999999,12
0.25079346,0.026550293,-0.024841309,-13.954199,3.4580152,5.0,12
0.2619629,0.040527344,-0.013305663999999998,-16.045801,0.78625953,2.3435113,12
0.2592163,0.039245605,-0.026000977,-18.763360000000002,0.22900763,-0.10687023,12
0.24304199,0.036376953,-0.034179688,-21.564885999999998,-1.1984733,-4.152672,12
0.25872803,0.039611816,-0.008850098,-22.87023,-0.9389313,-5.1984735,12
0.25152588,0.051086426,-0.018493652,-18.717558,-0.061068702,-6.366412,12
0.2522583,0.04724121,-0.020996094,-8.511451,-0.43511450000000007,-4.885496,12
0.23675537,0.059753417999999996,-0.007873535,4.664122,1.6030535,-2.0839694,12
0.25671387,0.047668457000000004,-0.01171875,12.282442999999999,1.7557251,-2.091603,12
0.23992919999999998,0.03540039,-0.016845703,11.78626,3.0,-4.4198474999999995,12
0.2526245,0.030639648,-0.007690429699999999,10.412213000000001,3.076336,-4.7099237,12
0.2588501,0.031921387,-0.005126953,11.625955000000001,2.5419848,-5.885496,12
0.25567627,0.03741455,-0.022766112999999998,9.748092,3.3435113,-6.366412,12
0.25946045,0.025512695,-0.015686035,6.2748094000000005,2.7480917000000002,-3.3206108,12
0.2678833,0.018920898000000002,0.004699707,2.4503817999999997,0.40458015,-7.10687,12
0.2598877,0.03161621,-0.016601562,1.4122137,0.21374045,-5.2671757,12
0.25445557,0.02520752,-0.028869628999999997,-1.5114504,-0.6946565,-6.366412,12
0.25897217,0.020874023000000002,-0.026733398,-1.6259542,-0.9847328000000002,-4.908396700000001,12
0.25079346,0.03869629,-0.015991211,-0.5496183000000001,-1.8625953999999998,-3.3816792999999996,12
0.24676514,0.029418945,-0.010864258,-0.90839696,-2.0152671000000004,-4.740458,12
0.24365234,0.030578612999999998,-0.019958496000000003,-2.2595419999999997,-1.9007633999999998,-6.603053599999999,12
0.25231934,0.030639648,-0.012390136999999999,-1.9923664,-2.1145039,-6.70229,12
0.25335693,0.023498535,-0.00982666,0.122137405,-1.0839695,-5.374046,12
0.2501831,0.030578612999999998,-0.012512207,1.7099236,4.2442746,-2.8931298,12
0.25036620000000004,0.04119873,-0.011352538999999998,2.7480917000000002,4.9923663000000005,0.045801528,12
0.24206543,0.035705566,-0.0056152343999999995,13.832060999999998,6.6183205,0.9389313,12
0.25952148,0.039489746,-0.02331543,8.396947,6.862595599999999,5.0076336999999995,12
0.24206543,0.039367676000000004,-0.0138549805,12.083969,6.6412214999999994,0.8778626,12
0.26104736,0.026184082,-0.0234375,4.152672,5.931298,1.1526718,12
0.26513672,0.03527832,-0.00579834,3.6641220000000003,3.9847328999999996,-2.8625952999999997,12
0.24853516,0.030761719,-0.022888184,-2.5648854,1.9236640999999999,-2.778626,12
0.25195312,0.036315917999999996,-0.025817871000000003,-4.0305343,-0.4274809,-3.1526718,12
0.2454834,0.015014648,-0.028625487999999998,-7.6488547,1.0,-8.312977,12
0.25506592,0.037719727,-0.030273438,-17.335878,-7.6488547,-4.2290077,12
0.25238037,0.041137695,-0.02758789,-1.0152671,-9.229008,0.40458015,12
0.23278809,0.038391113,-0.011169433999999999,12.229008,-8.954199000000001,2.3511450000000003,12
0.23907470000000003,0.020996094,-0.0178833,20.351145000000002,-4.3206105,9.893129,12
0.24163818,0.003540039,-0.01574707,14.053435,-3.534351,5.038168,12
0.24407959,0.022460938,-0.00970459,-7.519083999999999,-0.53435117,5.664122,12
0.24377441,0.033447266,-0.00390625,-15.0992365,-0.77862597,2.0076337,12
0.24249268,0.030822753999999997,-0.004760742,-13.045800999999999,-1.3587786,-4.442748,12
0.25164795,0.020324707,-0.00592041,-10.862596,2.480916,-7.2748094,12
0.25042725,0.03375244,-0.005065918,-12.022901,4.190840000000001,-5.442748,12
0.24798584,0.029296875,-0.0052490233999999995,-11.557252,6.335878,-3.7862597,12
0.25164795,0.041503906,-0.024047852,-7.6412214999999994,5.5648856,-4.40458,12
0.2421875,0.043762207000000004,-0.009765625,-1.4961832,4.946564700000001,0.64122134,12
0.23669434,0.024353027000000003,-0.024291992000000002,3.2900763,5.625954,0.8167939000000001,12
0.25,0.024169922000000003,-0.013122558999999999,1.038168,5.2519083,2.7099237,12
0.24572754,0.020019531,-0.015197753999999999,-5.1755724,1.4427481000000002,3.40458,12
0.24975586,0.02532959,-0.020629883,-9.503817,1.4274809,0.6870229,12
0.25872803,0.022399902000000003,-0.0049438477,-13.061069,-0.53435117,-3.3893129999999996,12
0.25329589999999996,0.03704834,-0.0078125,-15.053435,-0.60305345,-7.587786,12
0.25805664,0.020019531,-0.00793457,-19.549618,0.65648854,-9.160305000000001,12
0.24896239999999997,0.039916992000000005,-0.009643555,-18.87023,1.8015267,-10.984733,12
