Acc_X,Acc_Y,Acc_Z,Gyr_X,Gyr_Y,Gyr_Z,Label
0.22814941,0.072753906,0.08697510000000001,-3.5877862,-0.259542,-3.8778627,0
0.21875,0.07128906,0.09063721,-2.6793892,-0.9236641,-4.59542,0
0.22723389,0.08190918,0.07739258,0.10687023,-0.16793893,-5.0839696,0
0.21453857,0.06469726599999999,0.07775879,0.38931298,0.8702290000000001,-3.3282442000000003,0
0.23272705,0.06738281,0.07482910000000001,-0.610687,1.9160305,-2.3511450000000003,0
0.22460938,0.07281494,0.08935547,-1.8625953999999998,-1.2290076,-3.8931297999999996,0
0.23077393,0.08105469,0.07910156,0.16793893,0.3740458,-2.5801528,0
0.22851562,0.07391357400000001,0.07696533,-0.519084,0.57251906,-2.221374,0
0.22955322,0.074401855,0.08166504,-1.5572518999999998,0.32061067,-4.5343513,0
0.21289062,0.072265625,0.074035645,-2.0,-0.9160305000000001,-7.29771,0
0.22143555,0.078308105,0.08374023400000001,0.5114504,-3.5267177000000003,-6.2900763,0
0.22515869,0.07360839999999999,0.06958008,-1.8549619,-0.8167939000000001,-5.3511453,0
0.21978760000000003,0.06860351599999999,0.07324219,-3.0076337000000004,0.6793893,-3.3740457999999998,0
0.22247314,0.08361816400000001,0.08081055,-0.610687,-1.0534351,-2.4961832000000004,0
0.22674560000000002,0.07055664,0.08026123,0.6183206,0.49618322,-4.0076336999999995,0
0.23248291,0.07165527,0.08123779,-0.4274809,0.6335878,-2.480916,0
0.22546387,0.07543945,0.08166504,0.38931298,0.23664123,-1.5343511,0
0.22375488,0.070251465,0.07897949,0.9465648999999999,0.90076333,0.259542,0
0.22857666,0.07434082,0.06799316400000001,2.221374,3.076336,2.832061,0
0.21649169999999998,0.078063965,0.0769043,1.9465648999999998,2.0839694,3.7175572,0
0.22772217,0.08422851599999999,0.082214355,0.03816794,3.1145039,2.8015267999999995,0
0.22839355,0.0836792,0.068359375,-0.67175573,0.43511450000000007,1.2137405,0
0.22454834,0.07360839999999999,0.07635498,2.946565,-0.5496183000000001,0.97709924,0
0.2300415,0.08294678,0.074157715,2.1603053,-0.9236641,-1.0,0
0.22601318,0.06793213,0.06903076,4.961832,0.29007635,-1.8778626,0
0.22137451,0.07708739999999999,0.09234619,5.671755999999999,2.1984732000000005,-1.0687023,0
0.23596191,0.07525635,0.07348633,6.6793895,1.4961832,-1.7557251,0
0.22851562,0.07684326,0.07342529,2.5801528,1.1832061000000003,-2.3969467,0
0.22393799,0.07244873,0.091918945,2.6717557999999997,0.5648854999999999,-5.1297708,0
0.23126220000000003,0.07556152,0.08666992,3.6183207000000004,1.3435115,-8.145039,0
0.22100830000000002,0.06866455,0.08758545,5.10687,1.1984733,-7.59542,0
0.21636963,0.07073974599999999,0.08569336,5.1755724,0.32061067,-7.221374000000001,0
0.22412110000000002,0.06536865,0.08526611,4.2824425999999995,1.0992366000000002,-10.152672,0
0.23095703,0.06616211,0.08782959,5.5496182,-0.31297709999999995,-9.137404,0
0.22003174,0.06481933599999999,0.08142089999999999,6.0992365,0.20610687,-5.6946564,0
0.22113037,0.06420898400000001,0.07800293,4.854962,-0.77862597,-5.0839696,0
0.22363281,0.0625,0.08032226599999999,4.0152674,0.90076333,-3.4809160000000006,0
0.2265625,0.07202148400000001,0.08758545,4.3129773,0.519084,-0.5496183000000001,0
0.21936035,0.06488037,0.08764648400000001,3.5801528,-0.48091602,0.90076333,0
0.22137451,0.06439209,0.08544922,0.78625953,0.53435117,2.1221373,0
0.22497559,0.0635376,0.07916260000000001,-0.36641222,-1.0763359,4.2137402999999996,0
0.22729492,0.07171631,0.08874512,-2.8854961,1.1221374,5.2519083,0
0.23144531,0.06896973,0.090026855,-1.3282443000000002,-0.6183206,6.6183205,0
0.21783447,0.072143555,0.07763672,-1.2748091000000001,0.5648854999999999,4.6870227,0
0.22961426,0.06671142599999999,0.08648682,-1.6870228999999999,2.5038167999999996,5.1221375,0
0.21850586,0.06964111,0.08270264,-0.099236645,3.5190839999999994,5.816794,0
0.21954346,0.07574463,0.08551025400000001,-1.0610687,2.6488549999999997,3.6030532999999996,0
0.22973633,0.074035645,0.07330322,0.6870229,2.5419848,1.9694656000000004,0
0.23126220000000003,0.08496094,0.07751465,-1.9770991999999998,2.5954200000000003,1.6259542,0
0.22760010000000003,0.074279785,0.07714844,-2.2748091,3.167939,0.8091603,0
0.22875977,0.08239746,0.07202148400000001,0.053435113,1.5572518999999998,1.9541985,0
0.22589111,0.07330322,0.08148193,1.6564884999999998,2.8473282,-0.2519084,0
0.22796631,0.06890869,0.07397461,0.14503817,1.0,0.129771,0
0.24176025,0.07055664,0.07263183599999999,1.1526718,1.7480916000000002,-3.908397,0
0.23443604,0.0715332,0.07977295,1.0763359,0.41984734,-2.7480917000000002,0
0.23327637,0.0625,0.07904053,1.4351145,-0.5954198,-8.0992365,0
0.22686768,0.07244873,0.07330322,0.8167939000000001,-0.73282444,-3.7709922999999996,0
0.22473145,0.07208252,0.07684326,1.5877863,-1.2519083999999998,-3.7557251000000003,0
0.21887207,0.06890869,0.076171875,2.1908397999999996,-2.076336,-4.3511453,0
0.21606445,0.064453125,0.07452392599999999,3.0152671000000004,-0.8549618,-3.1603053,0
0.22662354,0.07769775400000001,0.07421875,3.6106870000000004,-2.167939,-3.0839694,0
0.22552489999999997,0.06811523400000001,0.06939697,3.8778627,-2.3969467,-2.923664,0
0.237854,0.07043457,0.08111572,2.2595419999999997,-0.9160305000000001,-1.9083970000000001,0
0.22747803,0.07299805,0.07781982400000001,2.2824428,-1.5343511,-3.2595419999999997,0
0.21856689999999998,0.0690918,0.07147217,4.152672,-0.66412216,-4.6183205,0
0.22259521,0.05822754,0.07354736,1.0687023,-1.1221374,-7.3893127000000005,0
0.21624756,0.06915283,0.07580566400000001,0.007633588,-0.38167940000000006,-6.8320612999999994,0
0.22961426,0.06481933599999999,0.0881958,2.7557251,0.84732825,-3.3206108,0
0.22686768,0.06860351599999999,0.07861328,2.2595419999999997,1.5267175,-2.5648854,0
0.22949219,0.06298828,0.07684326,3.1221373,5.038168,-3.038168,0
0.22637939999999998,0.06829834,0.07702637,2.1450381000000003,2.8854961,-3.1755726,0
0.23132324,0.06585693,0.080200195,1.7557251,3.4274809999999998,-1.4045801000000002,0
0.22344970000000003,0.06262207,0.07281494,0.7633588000000001,1.648855,-1.2900764,0
0.22619629,0.06732178,0.07708739999999999,2.2137403,3.351145,-1.1297709999999999,0
0.23040771,0.06567383,0.08172607400000001,0.79389316,3.3587787000000002,-1.259542,0
0.22540283,0.07287598,0.07128906,0.122137405,4.8396945,-0.21374045,0
0.22686768,0.06384277,0.074279785,1.1526718,4.3587785000000006,-2.4961832000000004,0
0.23345947,0.06756592,0.07733154,1.1450381,1.70229,-1.3282443000000002,0
0.22454834,0.06878662,0.08337402,1.0534351,1.5343511,-4.442748,0
0.22955322,0.06762695,0.06518555,1.0076336,3.0229008,-2.3053436,0
0.23443604,0.07409668,0.06500244,0.6259541999999999,2.2519082999999998,-2.0076337,0
0.23370361,0.07189941400000001,0.0703125,2.29771,1.1145038999999999,-3.70229,0
0.22796631,0.0715332,0.08880615,1.5419847,0.9847328000000002,-3.3664122000000005,0
0.23254395,0.06317139,0.07824707,2.1145039,2.091603,-5.183206,0
0.23150635,0.06872558599999999,0.08441162,2.9312978,2.4503817999999997,-5.9694657,0
0.21997070000000005,0.06939697,0.08850098,1.9694656000000004,1.3358778999999998,-5.183206,0
0.2232666,0.06994629,0.08551025400000001,1.6641221000000002,1.6870228999999999,-7.1755724,0
0.22070312,0.06744385,0.09082031,2.7709923,2.0610688,-4.557252,0
0.22332764,0.06732178,0.09124756,1.6564884999999998,2.4885497,-3.6564887,0
0.21911621,0.06768799,0.08880615,2.7251909,0.73282444,-5.9694657,0
0.23431396,0.07208252,0.07897949,1.8167938999999997,3.5190839999999994,-3.961832,0
0.23138428,0.06707764,0.08282471,0.24427481,1.6946564999999998,-4.259542,0
0.22991943,0.06469726599999999,0.08538818,1.221374,-0.19847329,-3.0839694,0
0.23034668,0.06866455,0.07562256,1.8320610000000002,1.610687,-3.129771,0
0.21551514,0.06591797,0.08679199,2.610687,2.0,-3.5725190000000002,0
0.22723389,0.07208252,0.08343506,0.8244275,-0.29007635,-2.8015267999999995,0
0.23358154,0.07019043,0.07849121,2.206107,-0.4274809,-3.1068702,0
0.2265625,0.06610107400000001,0.08691406,0.519084,1.0152671,-2.5877862,0
0.22515869,0.06427002,0.07849121,-1.5267175,1.1755725000000001,-1.8091604,0
0.21978760000000003,0.06915283,0.08178711,-0.99236643,0.84732825,-3.8778627,0
0.23040771,0.07165527,0.08258057,0.96183205,1.091603,-2.3282442000000003,0
0.22436523,0.059326172,0.08111572,0.091603056,-1.6412214,-3.8625953,0
0.22686768,0.068847656,0.070129395,-5.5114503,-1.9389313000000001,-2.0076337,0
0.24035645,0.06945801,0.080078125,-5.328244000000001,-0.2977099,-3.0839694,0
0.22827148,0.06060791,0.080200195,-2.3282442000000003,-1.4274809,-2.129771,0
0.23217773,0.06738281,0.08270264,-4.5801525000000005,-2.167939,-3.3206108,0
0.22558594,0.060546875,0.07635498,-4.656488400000001,-1.221374,-0.27480915,0
0.22912598,0.06964111,0.078308105,-3.5114503,-2.1450381000000003,-2.442748,0
0.22241211,0.058654785,0.08148193,-4.0152674,-2.4732822999999997,-0.2977099,0
0.21984863,0.07324219,0.07739258,-4.7480917,-1.5114504,-1.70229,0
0.23876953,0.06689453,0.07543945,-5.59542,-0.8778626,0.55725193,0
0.22491455,0.06890869,0.08697510000000001,-3.7862597,0.48854962,-1.5114504,0
0.22009277,0.06451416,0.06933594,-3.6412212999999998,-0.061068702,-0.610687,0
0.22344970000000003,0.06701660000000001,0.07855224599999999,-2.9312978,0.5801527,-0.9541985000000001,0
0.23400879,0.06677246,0.07366943,-3.2137403,2.8778627,-1.6717557,0
0.22784424,0.07104492,0.07855224599999999,-3.0610687999999997,1.8320610000000002,-1.3664121999999999,0
0.23211669999999998,0.06903076,0.08502197,-2.5877862,1.5496184,-3.9770992,0
0.22424316,0.06536865,0.080566406,-0.5496183000000001,1.5725191,-1.5725191,0
0.21179199,0.06927489999999999,0.07250976599999999,-2.923664,3.4122138,-2.610687,0
0.22460938,0.07183838,0.08544922,-3.5419848,2.9007633,-5.908396700000001,0
0.22558594,0.07720947,0.07556152,-1.8702290000000001,2.6335877999999995,-3.0458016,0
0.23419189999999998,0.058288574,0.08374023400000001,0.114503816,0.83206105,-2.6488549999999997,0
0.22766113,0.076293945,0.07971191400000001,0.045801528,1.8091604,-5.2900763,0
0.23193360000000002,0.06542969,0.07409668,-0.8091603,1.8549619,-5.038168,0
0.22900389999999998,0.07385254,0.08148193,0.519084,0.48091602,-6.3816795,0
0.22485352,0.06549072,0.07562256,-0.47328246,1.3664121999999999,-3.6183207000000004,0
0.22955322,0.06304932,0.076660156,0.6946565,2.2900763,-4.740458,0
0.23828125,0.07391357400000001,0.068359375,1.1221374,3.4122138,-6.5801525,0
0.22784424,0.07476807,0.07611084,1.8015267,2.923664,-5.6106873,0
0.23010254,0.07019043,0.08343506,3.183206,2.0,-3.8396947,0
0.22778320000000005,0.07940674,0.07098389,2.5267177000000003,3.0839694,-1.7099236,0
0.21972656,0.062683105,0.07885742,0.77862597,3.465649,-4.259542,0
0.22357178,0.06427002,0.08264160000000001,2.0305343000000002,2.167939,-2.70229,0
0.22406006,0.06915283,0.075683594,1.0076336,3.4732822999999997,-4.0076336999999995,0
0.22888184,0.060302734000000004,0.0914917,1.8396946,4.1755724,-3.1603053,0
0.22253418,0.06915283,0.09216308599999999,1.6564884999999998,3.8625953,-3.183206,0
0.21765137,0.06713867,0.0871582,1.0687023,1.8778626,-3.0687022,0
0.22174072,0.06927489999999999,0.089782715,-0.03816794,3.129771,-2.4885497,0
0.22979736,0.07305908,0.08746338,-0.23664123,1.7862595000000001,-1.091603,0
0.222229,0.07171631,0.08636474599999999,0.099236645,0.41984734,-3.8931297999999996,0
0.23388672,0.06408691400000001,0.07556152,1.519084,1.0458015,-3.7328242999999994,0
0.22546387,0.06292724599999999,0.08581543,1.6946564999999998,2.076336,-1.8854961,0
0.22637939999999998,0.07220459,0.084472656,2.8931298,0.8091603,-4.396946400000001,0
0.22393799,0.06463623,0.08129883,1.1832061000000003,-0.10687023,-2.7099237,0
0.21740723,0.07098389,0.085876465,0.39694658,0.41221374,-3.7480917000000002,0
0.22100830000000002,0.06567383,0.091308594,0.5114504,1.7938931,-2.961832,0
0.21826172,0.06402588,0.08728027,0.9541985000000001,2.4122138,-4.0992365,0
0.23583984,0.06817627,0.082092285,1.4045801000000002,1.4961832,-3.1526718,0
0.22521973,0.062683105,0.08660889,-0.33587787,0.9236641,-2.6946564,0
0.23022461,0.064331055,0.08355713,0.015267176,1.0229008,-3.3435113,0
0.22943115,0.06542969,0.08856201,1.0229008,3.0992367,-3.1374047000000003,0
0.21813965,0.06469726599999999,0.0793457,-0.97709924,1.4427481000000002,-5.0229006,0
0.22344970000000003,0.070495605,0.07769775400000001,-0.099236645,1.70229,-2.832061,0
0.22454834,0.06701660000000001,0.09240723,-0.3053435,0.519084,-4.2824425999999995,0
0.23730469,0.06390381,0.085998535,-0.3053435,0.053435113,-1.8625953999999998,0
0.22607422,0.06469726599999999,0.08331299,-0.15267175,1.221374,-4.633588,0
0.22015381,0.06970215,0.08422851599999999,-0.18320611,1.610687,-3.778626,0
0.23114014,0.06774902,0.09027099599999999,0.3740458,-0.22137405,-4.1679387000000006,0
0.22497559,0.07110596,0.08654785,-0.35877863,0.9236641,-4.343511599999999,0
0.2401123,0.06542969,0.08557129,-1.0534351,2.6793892,-4.809159999999999,0
0.22991943,0.06896973,0.08624267599999999,-1.480916,0.55725193,-3.5725190000000002,0
0.22973633,0.06085205,0.07470703,0.114503816,-0.114503816,-4.7022900000000005,0
0.22570801,0.07574463,0.08526611,0.40458015,1.0687023,-3.7251909,0
0.21936035,0.07073974599999999,0.07952881,-0.17557251,0.9541985000000001,-3.908397,0
0.23504639,0.07073974599999999,0.08123779,-1.4122137,0.77862597,-2.519084,0
0.23223877,0.06567383,0.08404541,-0.58778626,0.740458,-3.4961832000000004,0
0.2244873,0.06530762,0.08538818,-0.6488550000000001,-0.49618322,-3.2290077,0
0.2300415,0.066467285,0.078186035,-1.5267175,1.0687023,-3.5496182000000003,0
0.22851562,0.06213379,0.08081055,-2.9847328999999996,1.038168,-3.0687022,0
0.22393799,0.07202148400000001,0.08502197,-1.4885496,-1.2290076,-5.4503818,0
0.21923828,0.064575195,0.081848145,-1.2137405,-0.41221374,-4.9007635,0
0.23590088,0.068237305,0.08123779,-1.8244275,-0.32061067,-2.2671757,0
0.23168945,0.058898926,0.07202148400000001,-0.83206105,1.5877863,-2.3358779999999997,0
0.22119139999999998,0.06793213,0.08099365,0.22900763,0.41984734,-3.351145,0
0.22930908,0.06890869,0.07647705,-1.519084,1.0229008,-4.183206,0
0.2388916,0.070495605,0.07373047,-0.8167939000000001,0.38167940000000006,-4.0229006,0
0.22186279999999997,0.06512451,0.08843994,-0.84732825,0.70229006,-3.5496182000000003,0
0.22906494,0.059020996,0.082092285,-1.2824427,1.9160305,-3.3053436,0
0.22668457,0.07318115,0.08142089999999999,-0.64122134,-0.610687,-2.8244274,0
0.22698975,0.068481445,0.076049805,-1.8854961,0.8015267,-3.793893,0
0.2142334,0.06121826,0.078308105,-0.58778626,3.4961832000000004,-3.2671757,0
0.22650146,0.07208252,0.07769775400000001,0.20610687,3.167939,-3.1526718,0
0.22888184,0.06665039,0.072143555,-0.19083970000000003,-0.07633588,-2.908397,0
0.22680664,0.06567383,0.07885742,1.4580153,0.16793893,-2.3358779999999997,0
0.23425293,0.07965088,0.07556152,-1.5343511,0.9694656999999999,-0.90076333,0
0.22790527,0.07299805,0.07751465,0.22900763,2.8931298,-3.1908397999999996,0
0.22833252,0.06958008,0.078063965,-0.007633588,0.6335878,-3.5114503,0
0.22540283,0.061645507999999995,0.07385254,-0.36641222,0.32824427,-2.8778627,0
0.22918701,0.07171631,0.076049805,1.9160305,2.3053436,-4.7099237,0
0.21643066,0.0690918,0.095703125,0.6793893,2.038168,-2.6259542000000002,0
0.22058105,0.06420898400000001,0.09436035,2.6412212999999998,0.41984734,-3.5801528,0
0.22467041,0.06591797,0.08947754,2.1221373,1.0763359,-3.9770992,0
0.22760010000000003,0.064331055,0.09155273400000001,0.71755725,0.8854962,-3.6717557999999997,0
0.22302246,0.07305908,0.09094238,-1.5801526000000001,1.5496184,-2.1908397999999996,0
0.22351074,0.07122803,0.09008789,1.0610687,1.9923664,-2.8015267999999995,0
0.22851562,0.068237305,0.09625244,0.47328246,1.221374,-4.145038,0
0.22534179999999995,0.0690918,0.091674805,1.4656489,1.4427481000000002,-4.8396945,0
0.22924805,0.07263183599999999,0.0859375,-0.39694658,0.52671754,-4.3129773,0
0.22491455,0.0625,0.08380127,1.0229008,2.3435113,-5.1297708,0
0.2232666,0.06665039,0.08935547,0.31297709999999995,1.4351145,-3.4351146,0
0.22052002,0.06298828,0.091674805,0.67175573,2.923664,-5.8320612999999994,0
0.22418213,0.06860351599999999,0.08636474599999999,0.740458,1.6412214,-5.0458016,0
0.22467041,0.06945801,0.08044433599999999,-0.67175573,0.22137405,-3.4885497,0
0.22772217,0.06866455,0.08630371,-1.9541985,1.4656489,-4.946564700000001,0
0.22167969,0.068359375,0.09039307,-1.2748091000000001,2.1145039,-4.4503818,0
0.21343994,0.072265625,0.09027099599999999,0.3053435,0.9389313,-4.2290077,0
0.22540283,0.06671142599999999,0.0914917,-0.9694656999999999,1.7862595000000001,-2.7099237,0
0.22302246,0.06915283,0.083984375,-0.86259544,0.8015267,-3.832061,0
0.22418213,0.07055664,0.090026855,1.4427481000000002,-0.3740458,-2.9160306,0
0.22412110000000002,0.06689453,0.08502197,1.3816794,-0.06870229,-2.946565,0
0.23034668,0.07073974599999999,0.08660889,0.77862597,0.129771,-2.7404580000000003,0
0.23016357,0.06677246,0.08544922,-0.78625953,-0.35877863,-1.7633588,0
0.22937012,0.06695557,0.08685303,0.14503817,-0.9694656999999999,-3.7328242999999994,0
0.22827148,0.06829834,0.09350586,-0.40458015,-0.6335878,-4.3511453,0
0.22753906,0.06896973,0.0836792,0.34351146,-0.41984734,-2.8091602000000004,0
0.21734619,0.070373535,0.09051514,-1.0839695,0.045801528,-4.3053436,0
0.2244873,0.06933594,0.08325195,1.6335878000000001,0.21374045,-2.8473282,0
0.21960449,0.06750488,0.08135986,0.5801527,2.0,-2.832061,0
0.21997070000000005,0.06689453,0.08129883,-0.32824427,0.9847328000000002,-2.465649,0
0.22735596,0.07159424,0.082092285,1.4503816,-0.66412216,-3.2366412,0
0.21630860000000002,0.05834961,0.07910156,-0.21374045,1.1221374,-3.0229008,0
0.22778320000000005,0.06829834,0.0803833,-0.2519084,0.7480916,-2.9312978,0
0.21154785,0.07171631,0.075683594,0.259542,1.2519083999999998,-2.870229,0
0.22277832,0.07379150400000001,0.08050537,-0.22900763,1.8091604,-3.3129769999999996,0
0.2298584,0.071777344,0.08123779,0.6183206,1.2519083999999998,-1.7480916000000002,0
0.22259521,0.0680542,0.078308105,-1.1908396,1.5954198999999998,-0.9694656999999999,0
0.23321533,0.06701660000000001,0.08178711,-1.519084,0.26717559,-3.183206,0
0.23333739999999997,0.068359375,0.080200195,-0.6946565,0.32824427,-3.038168,0
0.22119139999999998,0.06512451,0.07922363,-0.53435117,1.5801526000000001,-3.5801528,0
0.22265625,0.07379150400000001,0.06982422,0.77099234,1.1374046,-2.1145039,0
0.21984863,0.074035645,0.08489989999999999,-0.29007635,1.7480916000000002,-3.9160306000000005,0
0.23040771,0.06549072,0.07702637,-1.4122137,1.1374046,-4.625954,0
0.20941162,0.0715332,0.07470703,-0.4427481,0.21374045,-2.557252,0
0.22320557,0.06878662,0.06958008,1.610687,2.3206108,-2.6259542000000002,0
0.23962402,0.07366943,0.07843017599999999,0.3053435,1.8320610000000002,-0.52671754,0
0.23126220000000003,0.06567383,0.07977295,-1.0763359,1.7328244,-2.8244274,0
0.22851562,0.07324219,0.07910156,0.259542,1.7251908999999999,-3.465649,0
0.23779297,0.07891846,0.07885742,0.19847329,0.53435117,-2.312977,0
0.23602295,0.07672119,0.071777344,-1.4503816,1.8396946,-3.1374047000000003,0
0.23126220000000003,0.08227539,0.07550049,-2.038168,0.65648854,-3.1526718,0
0.22430419999999998,0.06427002,0.07550049,0.47328246,-0.46564886,-5.3511453,0
0.23260498,0.06542969,0.07672119,0.32061067,1.7099236,-4.6946564,0
0.22601318,0.07360839999999999,0.08013916,-1.6030535,1.4427481000000002,-4.480916000000001,0
0.22454834,0.06665039,0.07470703,0.41984734,2.0687022,-2.6641220000000003,0
0.23187256,0.07000732400000001,0.09063721,0.053435113,0.3053435,-4.8702292,0
0.21508789,0.06408691400000001,0.0914917,0.67175573,0.40458015,-2.5114503,0
0.2322998,0.07360839999999999,0.09326172,0.015267176,1.9007633999999998,-2.9770992,0
0.21899414,0.0690918,0.08795166,-0.7251908,1.2977100000000001,-3.70229,0
0.22692871,0.070373535,0.09069824,-0.16030534,1.8625953999999998,-5.5725193,0
0.21960449,0.06750488,0.08416748,0.38931298,1.2061069,-1.6030535,0
0.22460938,0.07098389,0.08251953,0.22137405,-1.2519083999999998,-2.7328243,0
0.21911621,0.07098389,0.09350586,-1.2824427,1.1450381,-3.4885497,0
0.2244873,0.07458496,0.08746338,-0.7099236999999999,-2.0,-3.7328242999999994,0
0.21362305,0.07189941400000001,0.09069824,-1.0763359,-0.73282444,-5.6870227,0
0.22680664,0.06951904,0.08380127,1.4580153,0.73282444,-4.7175574000000005,0
0.21978760000000003,0.06860351599999999,0.08972168,-1.3435115,0.20610687,-5.1297708,0
0.23315429999999995,0.07043457,0.092285156,-1.091603,2.0,-3.1603053,0
0.2310791,0.06549072,0.07910156,0.9465648999999999,1.4274809,-2.442748,0
0.22430419999999998,0.06390381,0.08941650400000001,0.34351146,1.1145038999999999,-3.351145,0
0.22180176,0.06756592,0.091308594,-1.2671756,1.4656489,-2.1603053,0
0.21954346,0.06958008,0.08953857400000001,0.70229006,0.60305345,-1.8778626,0
0.22778320000000005,0.064941406,0.09143066400000001,-0.7480916,1.091603,-2.9389312000000003,0
0.22363281,0.07421875,0.08013916,0.24427481,1.0992366000000002,-1.8931297999999999,0
0.22119139999999998,0.06933594,0.08654785,-2.4732822999999997,1.7709924,-3.7709922999999996,0
0.22637939999999998,0.07397461,0.08862305,-2.7404580000000003,2.5114503,-4.1297708,0
0.22912598,0.07922363,0.0859375,-0.8778626,0.8091603,-4.8778625,0
0.23120117,0.07293701,0.09014892599999999,-1.5267175,-0.33587787,-4.8625956,0
0.22338867,0.06939697,0.08428955,-0.4274809,1.0610687,-2.8091602000000004,0
0.22454834,0.06793213,0.08679199,-0.35114503,0.15267175,-4.603053599999999,0
0.21386719,0.07397461,0.084472656,-1.038168,0.90839696,-2.8396947,0
0.22540283,0.07067871,0.085754395,1.8015267,0.8091603,-5.2137402999999996,0
0.22552489999999997,0.07537842,0.08697510000000001,-1.0076336,-0.259542,-4.3511453,0
0.22564697,0.06524658,0.08758545,1.8091604,0.030534351,-4.816794,0
0.21716309,0.072753906,0.08074951,1.8015267,-0.06870229,-5.9541984,0
0.23394775,0.07513428,0.08160400400000001,0.23664123,-1.2290076,-5.3816795,0
0.22503662,0.06640625,0.07928467,-0.41221374,0.2977099,-5.3053436,0
0.22729492,0.07684326,0.08630371,0.83206105,2.9770992,-3.29771,0
0.22540283,0.06817627,0.08258057,2.1603053,-0.5496183000000001,-2.572519,0
0.21752929999999995,0.068481445,0.08074951,1.9694656000000004,0.015267176,-1.1374046,0
0.22869873,0.07867432,0.078063965,0.045801528,0.7557252,-2.6793892,0
0.22692871,0.08062744,0.07208252,0.71755725,3.1068702,-0.46564886,0
0.2220459,0.07916260000000001,0.07940674,-2.3587787000000002,2.6183207000000004,-0.8854962,0
0.22644043,0.06750488,0.07714844,0.9236641,1.1145038999999999,-1.2748091000000001,0
0.22851562,0.07775879,0.07928467,-0.13740458,2.8244274,-3.8778627,0
0.21716309,0.07476807,0.08563232400000001,0.7557252,1.1679389999999998,-3.9541983999999997,0
0.22186279999999997,0.06890869,0.08459473,0.29007635,0.49618322,-2.923664,0
0.23242188,0.07391357400000001,0.07531738,0.8091603,1.6641221000000002,-4.038168,0
0.22564697,0.07043457,0.08605957,0.06870229,1.3587786,-5.3893127,0
0.22583008,0.08099365,0.06707764,0.0,1.4885496,-3.3664122000000005,0
0.22137451,0.07122803,0.07006836,3.0839694,0.35877863,-2.1221373,0
0.22033691,0.06408691400000001,0.08441162,2.7709923,1.6793894,-4.7709923,0
0.21868896,0.07775879,0.08288574,2.1374047000000003,0.38931298,-1.7938931,0
0.22271729,0.06744385,0.07348633,1.1297709999999999,1.7251908999999999,-3.351145,0
0.23632812,0.07318115,0.08306885,1.259542,0.9694656999999999,-3.2442749,0
0.23571777,0.07653808599999999,0.0703125,-1.1679389999999998,-0.41221374,-2.7862597,0
0.2142334,0.06604004,0.07147217,1.3358778999999998,0.7557252,-3.6030532999999996,0
0.23669434,0.06701660000000001,0.07360839999999999,0.53435117,-0.06870229,-2.5038167999999996,0
0.22436523,0.07067871,0.07598877,-0.46564886,1.259542,-4.4351144,0
0.22741699,0.07385254,0.07800293,-0.60305345,-0.07633588,-4.923664,0
0.22650146,0.07873535,0.0914917,0.5114504,0.8091603,-5.366412,0
0.2232666,0.07373047,0.08728027,-1.0687023,1.3969465,-4.4885497,0
0.22210693,0.06628418,0.09674072,-0.007633588,-1.4351145,-5.5725193,0
0.22515869,0.06939697,0.08074951,-0.9847328000000002,2.6793892,-1.7328244,0
0.22100830000000002,0.06604004,0.08227539,-0.6335878,2.076336,-2.5419848,0
0.22473145,0.07409668,0.08886719,1.7251908999999999,2.2671757,-3.053435,0
0.21850586,0.06811523400000001,0.08917236,0.34351146,1.5954198999999998,-2.9007633,0
0.22106934,0.0715332,0.09320068,1.2137405,0.129771,-2.3740457999999998,0
0.2220459,0.07055664,0.08703613,-1.1984733,3.1221373,-0.77862597,0
0.21679688,0.07128906,0.08752441400000001,0.9541985000000001,1.9312977,-1.2671756,0
0.22827148,0.07281494,0.08483887,-0.6183206,1.1221374,-0.022900764,0
0.21813965,0.067871094,0.08996582,0.740458,2.2519082999999998,-3.6412212999999998,0
0.22869873,0.07330322,0.085998535,-0.90076333,1.2824427,-3.5572519999999996,0
0.22460938,0.07678223,0.08172607400000001,-0.46564886,2.0229008,-3.6946564,0
0.22094727,0.072143555,0.08215332,-0.2977099,2.4198472,-4.885496,0
0.22088623,0.06781006,0.081970215,-1.0152671,2.465649,-2.557252,0
0.22406006,0.06762695,0.08666992,0.8091603,0.6335878,-3.7480917000000002,0
0.22570801,0.07116699,0.08703613,0.22137405,-0.045801528,-4.4274807,0
0.22650146,0.06756592,0.088012695,-0.8091603,1.4351145,-2.076336,0
0.23162842,0.07373047,0.08227539,-0.47328246,0.34351146,-3.1984732000000005,0
0.22167969,0.07202148400000001,0.0847168,-0.5648854999999999,2.480916,-3.29771,0
0.22235107,0.06329346,0.08361816400000001,-1.480916,2.221374,-4.1221375,0
0.2232666,0.07128906,0.080078125,-2.7480917000000002,1.389313,-1.7328244,0
0.21844482,0.06774902,0.07702637,-0.77099234,0.41221374,-2.0610688,0
0.2144165,0.07141113,0.08850098,-0.3053435,2.1450381000000003,-2.5877862,0
0.2298584,0.06671142599999999,0.08129883,-1.3206106000000002,2.5801528,-1.961832,0
0.21801758,0.07501221,0.08666992,0.27480915,1.8167938999999997,-4.1679387000000006,0
0.22442627,0.07019043,0.08496094,-1.3969465,0.90076333,-2.0229008,0
0.21691895,0.06921387,0.08502197,-1.2824427,2.1908397999999996,-1.8167938999999997,0
0.22021484,0.076049805,0.08294678,-1.9160305,1.1755725000000001,-5.6412214999999994,0
0.22717285,0.07159424,0.08374023400000001,0.78625953,0.55725193,-4.4351144,0
0.22460938,0.075683594,0.08825683599999999,-0.9694656999999999,1.3282443000000002,-4.2442746,0
0.21960449,0.06903076,0.08276367,0.33587787,-0.022900764,-1.2977100000000001,0
0.22460938,0.0725708,0.08795166,-1.9923664,-0.045801528,-1.9160305,0
0.22155762,0.07452392599999999,0.08062744,1.1526718,0.6259541999999999,-2.167939,0
0.2208252,0.07122803,0.08477783,1.3740458,0.19847329,-4.664122,0
0.23150635,0.070129395,0.08941650400000001,0.5801527,1.6870228999999999,-2.3664122000000005,0
0.22705078,0.07757568,0.07452392599999999,-1.7938931,1.2137405,-1.5419847,0
0.22772217,0.07708739999999999,0.08825683599999999,0.73282444,0.77862597,-2.053435,0
0.22894287,0.07324219,0.09088135,2.2290077,-0.091603056,-6.2519083,0
0.23199463,0.07452392599999999,0.07989502,-0.030534351,1.1068702,-1.5267175,0
0.23315429999999995,0.06854248,0.0871582,1.1068702,1.2900764,-4.0076336999999995,0
0.2300415,0.07391357400000001,0.070129395,-0.5496183000000001,0.9389313,-2.6488549999999997,0
0.21887207,0.06481933599999999,0.08941650400000001,0.3740458,1.1297709999999999,-1.7099236,0
0.23583984,0.07922363,0.08044433599999999,1.4885496,0.8854962,-1.1526718,0
0.22509766,0.07336426,0.07775879,0.06870229,1.0534351,-3.221374,0
0.22644043,0.06781006,0.07336426,-0.5648854999999999,0.7557252,-2.1450381000000003,0
0.22515869,0.07836914,0.07312012,1.3282443000000002,0.053435113,-2.6488549999999997,0
0.22924805,0.06652832,0.07513428,-0.53435117,0.5496183000000001,-2.7328243,0
0.21960449,0.07055664,0.07861328,-0.32824427,1.4122137,-3.6793892,0
0.22949219,0.07330322,0.07623291,1.2671756,1.8702290000000001,-3.2519082999999998,0
0.23632812,0.07336426,0.06768799,-0.73282444,0.8854962,-1.1679389999999998,0
0.22070312,0.06927489999999999,0.09466553,0.16793893,-0.114503816,-0.9694656999999999,0
0.22088623,0.06750488,0.09161377,0.39694658,0.5648854999999999,-2.480916,0
0.22894287,0.07336426,0.09350586,0.23664123,1.3282443000000002,-4.473282299999999,0
0.21600342,0.06292724599999999,0.09362793,-0.36641222,2.3053436,-2.9923662999999996,0
0.22033691,0.06414795,0.09735107400000001,2.2824428,-0.091603056,-2.183206,0
0.22119139999999998,0.06964111,0.08514404,0.27480915,0.99236643,-3.4427480000000004,0
0.21655273,0.06652832,0.08807373,0.022900764,0.39694658,-2.1526718,0
0.21820068,0.07122803,0.093566895,1.3587786,-0.6870229,-3.3053436,0
0.2232666,0.068359375,0.09405517599999999,0.40458015,-0.65648854,-5.114504,0
0.22344970000000003,0.06994629,0.09320068,1.0458015,-1.1908396,-5.6183205,0
0.22027588,0.06469726599999999,0.09045410000000001,-0.29007635,0.9465648999999999,-2.5114503,0
0.21936035,0.072265625,0.08758545,1.2137405,0.58778626,-2.2900763,0
0.22210693,0.06817627,0.08911133,-0.45038167,0.5038168,-2.3358779999999997,0
0.21936035,0.06976318,0.08581543,1.6717557,-0.23664123,-2.961832,0
0.22259521,0.068847656,0.08874512,0.2977099,1.3435115,-5.7251905999999995,0
0.22784424,0.07232666,0.085876465,1.3664121999999999,0.48854962,-5.343511599999999,0
0.22924805,0.07128906,0.08660889,2.3664122000000005,0.32061067,-3.832061,0
0.22613525,0.07354736,0.085998535,1.6717557,0.6259541999999999,-2.3587787000000002,0
0.22229004,0.0690918,0.088012695,0.84732825,1.4656489,-3.3816792999999996,0
0.22149658,0.07086182,0.08734131,1.6259542,0.9160305000000001,-3.8931297999999996,0
0.22290039,0.06695557,0.09173584,1.0458015,0.34351146,-3.9312977999999994,0
0.22930908,0.070495605,0.08270264,0.4427481,1.3740458,-2.8549618999999997,0
0.22180176,0.07678223,0.08459473,0.045801528,-1.3053435,-2.9694657,0
0.22973633,0.07537842,0.08459473,0.8015267,-0.259542,-2.0,0
0.22015381,0.068237305,0.0871582,0.99236643,0.8091603,-3.8931297999999996,0
0.22192383,0.06652832,0.09094238,-0.091603056,0.32061067,-1.8244275,0
0.22192383,0.06915283,0.08331299,1.4122137,1.259542,-1.4351145,0
0.21850586,0.07446289,0.07781982400000001,1.961832,1.8015267,-2.7557251,0
0.22991943,0.07220459,0.08251953,1.6946564999999998,0.8091603,-3.183206,0
0.22332764,0.06945801,0.08984375,0.7557252,-1.7480916000000002,-2.9389312000000003,0
0.23590088,0.07421875,0.08105469,0.90839696,0.60305345,-1.6793894,0
0.23199463,0.066345215,0.08074951,0.022900764,0.5801527,-2.961832,0
0.22943115,0.06799316400000001,0.08178711,0.7099236999999999,-0.114503816,-3.6870230000000004,0
0.22216797,0.06341553,0.07202148400000001,1.3053435,-1.6717557,-3.4122138,0
0.22515869,0.06604004,0.08459473,0.740458,-0.3053435,-4.1374044,0
0.21936035,0.06915283,0.07885742,0.52671754,0.41984734,-2.091603,0
0.22021484,0.06927489999999999,0.08160400400000001,0.48854962,0.8854962,-3.3206108,0
0.22717285,0.063964844,0.08416748,-0.22900763,0.17557251,-4.4961834000000005,0
0.22741699,0.07318115,0.07489014,-0.03816794,-0.48854962,-4.3511453,0
0.23254395,0.06774902,0.078186035,-0.5038168,1.4961832,-2.1374047000000003,0
0.23046875,0.07324219,0.08288574,-0.9465648999999999,0.9465648999999999,-2.778626,0
0.23083496,0.07495117,0.08142089999999999,-1.0839695,-0.35877863,-3.4885497,0
0.21490479,0.06408691400000001,0.07977295,-0.41984734,0.24427481,-5.076336,0
0.22229004,0.07092285,0.07537842,-2.3282442000000003,0.9541985000000001,-3.8015267999999995,0
0.21588135,0.07421875,0.07470703,-2.183206,0.49618322,-2.8244274,0
0.22601318,0.06903076,0.07653808599999999,-1.6259542,1.0534351,-1.9923664,0
0.21917725,0.06872558599999999,0.08142089999999999,-1.6564884999999998,0.8702290000000001,-3.8625953,0
0.23162842,0.064941406,0.068237305,-1.961832,0.7251908,-3.2442749,0
0.22698975,0.075683594,0.07672119,-2.442748,0.3740458,-5.5725193,0
0.22570801,0.07336426,0.07135010000000001,-3.2137403,2.6717557999999997,-3.3969467000000004,0
0.21411133,0.07086182,0.08233642599999999,-1.6259542,0.6335878,-3.2366412,0
0.23046875,0.08001709,0.07562256,-2.4885497,1.7786259999999998,-2.2366412,0
0.2286377,0.07421875,0.07135010000000001,-1.8167938999999997,1.2824427,-5.740458,0
0.22314453,0.07330322,0.07086182,-0.6335878,1.4274809,-4.1221375,0
0.22650146,0.07562256,0.09185791,-1.1984733,1.7251908999999999,-4.9694657,0
0.22650146,0.07110596,0.08648682,-1.9694656000000004,2.389313,-3.2671757,0
0.23028564,0.07824707,0.068481445,-1.4274809,2.5954200000000003,-1.3206106000000002,0
0.23297119,0.07348633,0.08728027,-1.8244275,-0.29007635,-4.145038,0
0.22564697,0.07318115,0.07653808599999999,-0.99236643,1.2900764,-4.8320612999999994,0
0.22729492,0.06933594,0.08581543,0.4427481,1.480916,-3.465649,0
0.22412110000000002,0.06921387,0.08502197,-1.4503816,2.8854961,-3.221374,0
0.23138428,0.07501221,0.07653808599999999,-1.5419847,1.2977100000000001,-4.7862597000000004,0
0.22271729,0.07122803,0.09057617,0.21374045,0.0,-4.328244000000001,0
0.22607422,0.06689453,0.09197998,-1.2671756,0.21374045,-0.8015267,0
0.22912598,0.06298828,0.08929443,-1.0,1.2748091000000001,-4.5801525000000005,0
0.22747803,0.062683105,0.09423828,0.129771,2.076336,-6.442748,0
0.22106934,0.06561279,0.08892822,-0.71755725,-0.061068702,-1.8396946,0
0.22180176,0.07379150400000001,0.08752441400000001,-2.3053436,1.8549619,-3.4122138,0
0.21533203,0.07092285,0.08636474599999999,-1.2290076,0.129771,-1.1374046,0
0.22540283,0.0725708,0.08959961,-0.77099234,-0.47328246,-3.3129769999999996,0
0.21325684,0.0725708,0.09045410000000001,-1.389313,-0.20610687,-2.7862597,0
0.22088623,0.07244873,0.08642578,-2.6183207000000004,0.7099236999999999,-3.1755726,0
0.23083496,0.07598877,0.08636474599999999,0.54198474,0.9847328000000002,-4.8320612999999994,0
0.23205566,0.07250976599999999,0.085998535,-0.07633588,2.2366412,-4.0229006,0
0.2208252,0.07220459,0.09460449,-2.6946564,0.022900764,-1.5419847,0
0.23162842,0.06872558599999999,0.087890625,-1.1984733,1.5648855,-4.5801525000000005,0
0.22009277,0.07165527,0.08233642599999999,-1.0534351,1.1450381,-3.7480917000000002,0
0.22277832,0.07464599599999999,0.08923339999999999,-2.0610688,1.6183206,-3.3282442000000003,0
0.22094727,0.07293701,0.08142089999999999,-1.70229,0.41984734,-5.4580154,0
0.22430419999999998,0.06585693,0.08428955,-1.8854961,1.519084,-4.7557254,0
0.22241211,0.06872558599999999,0.08502197,-3.5038167999999996,0.64122134,-6.2519083,0
0.21984863,0.06439209,0.085754395,-1.0458015,0.6335878,-4.2519083,0
0.22668457,0.06329346,0.08105469,-0.16030534,-0.16030534,-2.0,0
0.22094727,0.06927489999999999,0.0871582,0.091603056,0.114503816,-1.7862595000000001,0
0.22735596,0.06488037,0.08752441400000001,-0.34351146,1.6335878000000001,-1.9694656000000004,0
0.22662354,0.07159424,0.08343506,-0.19847329,2.70229,-1.4961832,0
0.20788574,0.0703125,0.08892822,-1.8625953999999998,1.4351145,-1.7480916000000002,0
0.22778320000000005,0.07458496,0.08477783,-1.5419847,0.022900764,-2.2519082999999998,0
0.22613525,0.07165527,0.07836914,0.6183206,1.3053435,-2.480916,0
0.23175049,0.066589355,0.08142089999999999,0.65648854,0.23664123,-3.2824428,0
0.2286377,0.07122803,0.07836914,0.17557251,0.48854962,-1.5496184,0
0.22070312,0.07421875,0.08709717,0.9160305000000001,0.41221374,-1.7709924,0
0.22241211,0.076049805,0.07867432,1.0839695,0.3740458,-2.1755726,0
0.22601318,0.07507324,0.08721924,-2.183206,2.0610688,-4.335878,0
0.22607422,0.07330322,0.08862305,-2.1374047000000003,0.6870229,-4.343511599999999,0
0.22680664,0.07531738,0.07727051,0.54198474,1.3129771000000001,-5.8320612999999994,0
0.22436523,0.07196045,0.08673096,-0.740458,0.6259541999999999,-4.6793895,0
0.22229004,0.07348633,0.07647705,-0.71755725,1.3053435,-2.9541984,0
0.2310791,0.06878662,0.08300781,0.36641222,1.8167938999999997,-3.1908397999999996,0
0.22961426,0.07379150400000001,0.08856201,1.5572518999999998,0.22137405,-3.648855,0
0.22296143,0.071777344,0.08135986,0.610687,-0.5801527,-4.656488400000001,0
0.22552489999999997,0.070251465,0.08282471,0.5648854999999999,0.67175573,-4.740458,0
0.23083496,0.07647705,0.07092285,1.7480916000000002,3.053435,-2.312977,0
0.23126220000000003,0.06921387,0.06750488,0.73282444,1.8320610000000002,-2.4580152,0
0.22833252,0.06420898400000001,0.072143555,-0.22900763,1.4198473999999999,-2.442748,0
0.22033691,0.06341553,0.08374023400000001,0.6259541999999999,2.0687022,-4.068702,0
0.22344970000000003,0.07043457,0.076171875,0.091603056,1.8625953999999998,-2.8625952999999997,0
0.22583008,0.07672119,0.07067871,-0.41984734,0.07633588,-3.7557251000000003,0
0.21179199,0.06292724599999999,0.081970215,0.31297709999999995,1.0,-3.2824428,0
0.22247314,0.07086182,0.09289551,-0.53435117,1.2366412,-2.8931298,0
0.22955322,0.06585693,0.08697510000000001,0.2519084,0.45801526,-4.0305343,0
0.22601318,0.0703125,0.09362793,0.14503817,0.90076333,-3.091603,0
0.22430419999999998,0.07360839999999999,0.0871582,0.9847328000000002,0.22137405,-1.8091604,0
0.22540283,0.07421875,0.08325195,0.35877863,1.1755725000000001,-0.114503816,0
0.22039795,0.07250976599999999,0.088378906,-0.35114503,2.70229,-3.8015267999999995,0
0.22869873,0.07110596,0.08569336,1.6946564999999998,1.961832,-2.4732822999999997,0
0.22845459,0.07281494,0.08807373,0.091603056,1.0839695,-7.3053436000000005,0
0.22143555,0.06585693,0.08569336,-0.15267175,0.90076333,-4.366412,0
0.22668457,0.07000732400000001,0.08026123,-1.7557251,0.053435113,-3.0305343,0
0.21984863,0.07452392599999999,0.08557129,-2.6946564,2.4198472,-3.5267177000000003,0
0.22631836,0.07446289,0.08618164,-1.6564884999999998,2.0992367,-3.8931297999999996,0
0.21911621,0.06384277,0.08862305,-1.7175573,0.23664123,-4.2900763,0
0.22735596,0.07379150400000001,0.08514404,-2.1984732000000005,1.6030535,-3.2748091,0
0.21771239999999997,0.06524658,0.08477783,-1.9847328999999998,3.038168,-2.2595419999999997,0
0.22747803,0.06481933599999999,0.09338379,-1.9312977,0.54198474,-3.7251909,0
0.21929932,0.07208252,0.08551025400000001,-1.4503816,1.2900764,-1.6412214,0
0.23431396,0.06762695,0.08569336,-3.6717557999999997,0.97709924,-2.7404580000000003,0
0.21917725,0.068847656,0.074401855,-2.29771,1.0763359,-2.3816792999999996,0
0.21862793,0.07519531,0.08361816400000001,-0.8396947,1.7328244,0.5954198,0
0.22247314,0.070129395,0.0803833,-2.534351,0.71755725,-1.9007633999999998,0
0.22979736,0.07684326,0.07580566400000001,-2.6564887,0.47328246,-2.2900763,0
0.22546387,0.08135986,0.08258057,-4.183206,1.610687,-3.2442749,0
0.23199463,0.07128906,0.07513428,-3.9160306000000005,1.3435115,-4.1984735,0
0.23223877,0.0769043,0.07409668,0.54198474,-0.16793893,-3.6335877999999995,0
0.22851562,0.07098389,0.07684326,0.29007635,1.9312977,-2.832061,0
0.23791504,0.072265625,0.08746338,-0.32824427,2.5496182000000003,-6.1755724,0
0.22399902,0.07751465,0.08782959,-0.29007635,0.29007635,-6.6335880000000005,0
0.22875977,0.07763672,0.07366943,-0.22900763,-1.1908396,-4.908396700000001,0
0.22131348,0.07159424,0.08032226599999999,-2.3282442000000003,-0.6335878,-5.442748,0
0.23181152,0.07159424,0.07312012,-1.4045801000000002,1.7480916000000002,-4.526717700000001,0
0.21862793,0.061340332000000004,0.07458496,1.1679389999999998,1.1374046,-3.7175572,0
0.2232666,0.07556152,0.07714844,-0.9312976999999999,1.0076336,-3.4122138,0
0.22778320000000005,0.06500244,0.07501221,-2.3587787000000002,2.1526718,-3.2442749,0
0.23297119,0.068481445,0.07879639,-1.8473282,1.5954198999999998,-3.6870230000000004,0
0.22344970000000003,0.07684326,0.08557129,0.14503817,1.8396946,-3.2900763,0
0.2244873,0.067871094,0.07519531,-0.9541985000000001,-0.34351146,-4.4274807,0
0.22216797,0.06713867,0.07391357400000001,-0.007633588,0.21374045,-1.1068702,0
0.23309326,0.06610107400000001,0.07098389,0.41221374,2.221374,2.832061,0
0.21777344,0.064453125,0.08435058599999999,1.1526718,2.0229008,-1.9160305,0
0.24725342,0.07232666,0.07299805,0.29007635,2.389313,0.21374045,0
0.22155762,0.07757568,0.07855224599999999,0.84732825,0.519084,-2.3664122000000005,0
0.222229,0.07836914,0.07299805,-1.1908396,2.2442749,-2.4732822999999997,0
0.22363281,0.07287598,0.07159424,-0.15267175,0.129771,-5.2900763,0
0.21911621,0.0715332,0.08294678,-0.3053435,0.5496183000000001,-5.7938933,0
0.23828125,0.06781006,0.0769043,0.23664123,1.1603054,-6.7328243,0
0.22265625,0.07708739999999999,0.08807373,-0.52671754,1.2061069,-5.4885497,0
0.22644043,0.07525635,0.09545898400000001,1.1984733,1.3816794,-6.190840000000001,0
0.22229004,0.06713867,0.08758545,0.610687,1.519084,-5.3587785000000006,0
0.22918701,0.06604004,0.09338379,0.22137405,1.70229,-4.2061067,0
0.22619629,0.07141113,0.09027099599999999,0.5801527,3.053435,-3.6183207000000004,0
0.22595215,0.07525635,0.09039307,0.8549618,5.053435299999999,-4.1679387000000006,0
0.21838379,0.06628418,0.08752441400000001,0.53435117,3.9389312000000007,-4.2137402999999996,0
0.22760010000000003,0.066345215,0.08520508,3.1755726,4.1984735,-1.8320610000000002,0
0.2298584,0.074157715,0.08679199,3.7557251000000003,4.656488400000001,-2.2595419999999997,0
0.22546387,0.07135010000000001,0.08172607400000001,3.167939,4.412214,-1.2519083999999998,0
0.22509766,0.07202148400000001,0.08422851599999999,3.0687022,4.1221375,-3.076336,0
0.22778320000000005,0.07305908,0.07781982400000001,5.633588,4.3587785000000006,-1.0610687,0
0.23315429999999995,0.07263183599999999,0.085754395,4.847328,4.7328243,-1.6717557,0
0.22015381,0.0715332,0.081970215,6.526717700000001,4.1755724,-2.442748,0
0.22381592,0.072753906,0.08142089999999999,5.7938933,3.2824428,-3.0229008,0
0.23022461,0.07647705,0.079956055,6.6870227,3.778626,1.1068702,0
0.23083496,0.07189941400000001,0.08374023400000001,7.8549619999999996,2.167939,-0.41984734,0
0.22338867,0.07574463,0.0871582,8.7786255,3.1526718,-3.0076337000000004,0
0.22973633,0.06817627,0.07696533,7.778625999999999,2.6717557999999997,-2.8625952999999997,0
0.22778320000000005,0.07159424,0.09020996,8.305344,-0.22137405,-3.6335877999999995,0
0.22674560000000002,0.07556152,0.08215332,8.244275,1.2061069,-5.7328243,0
0.23034668,0.06866455,0.08416748,5.7099237,0.9465648999999999,-2.8015267999999995,0
0.22045898,0.06579589999999999,0.08294678,6.236641400000001,1.3282443000000002,-4.442748,0
0.22033691,0.07556152,0.08691406,5.9694657,1.5419847,-3.4427480000000004,0
0.21783447,0.070373535,0.08178711,5.1603055,0.33587787,-2.1374047000000003,0
0.22479248,0.06768799,0.089904785,5.656488400000001,1.7862595000000001,-1.8091604,0
0.22442627,0.07299805,0.0836792,6.2061067,2.4198472,-2.2137403,0
0.22088623,0.06878662,0.08764648400000001,4.442748,2.129771,-3.3816792999999996,0
0.22961426,0.07489014,0.083984375,6.343511599999999,2.3511450000000003,-1.610687,0
0.22607422,0.06329346,0.09301758,3.3664122000000005,3.1068702,-2.3816792999999996,0
0.22509766,0.06781006,0.08520508,4.259542,2.8473282,-3.6183207000000004,0
0.22058105,0.07482910000000001,0.09088135,3.5190839999999994,2.3053436,-2.610687,0
0.21881104,0.07336426,0.089660645,3.0610687999999997,2.0458016,-3.351145,0
0.21856689999999998,0.06781006,0.09350586,2.2671757,2.5038167999999996,-0.2977099,0
0.22338867,0.07244873,0.078063965,3.351145,4.236641400000001,-1.2137405,0
0.23352051,0.07080078,0.081848145,0.5954198,1.0610687,-1.351145,0
0.23425293,0.0680542,0.07733154,0.9389313,-0.007633588,-3.1908397999999996,0
0.22772217,0.07305908,0.06970215,2.038168,1.5343511,-0.8396947,0
0.23181152,0.07971191400000001,0.07489014,0.36641222,0.39694658,-1.3969465,0
0.21875,0.07000732400000001,0.074157715,-0.5496183000000001,0.14503817,-0.78625953,0
0.22436523,0.07104492,0.08013916,1.9083970000000001,0.7099236999999999,0.17557251,0
0.22772217,0.07281494,0.07287598,1.7328244,-0.29007635,-0.6335878,0
0.23571777,0.08563232400000001,0.07891846,-0.45038167,0.6793893,0.90839696,0
0.21936035,0.07318115,0.09539795,0.129771,-0.84732825,-1.3206106000000002,0
0.22045898,0.07861328,0.07006836,1.648855,-1.3435115,-2.0076337,0
0.23486328,0.07391357400000001,0.07360839999999999,0.57251906,-0.8854962,-2.6259542000000002,0
0.21881104,0.07525635,0.08068848,2.0687022,-1.4427481000000002,-2.557252,0
0.22869873,0.08142089999999999,0.07879639,2.6717557999999997,-0.9541985000000001,-3.9770992,0
0.22918701,0.07495117,0.08160400400000001,0.8778626,-1.6564884999999998,-2.129771,0
0.21624756,0.07971191400000001,0.07232666,0.23664123,-1.1603054,-2.8625952999999997,0
0.22039795,0.08886719,0.08203125,1.0534351,-0.78625953,-3.221374,0
0.22418213,0.07867432,0.08343506,1.3816794,-1.3358778999999998,-4.0839696000000005,0
0.21563720000000003,0.0725708,0.07635498,3.1603053,0.6793893,0.24427481,0
0.21405029999999997,0.06829834,0.06903076,0.48854962,-0.19083970000000003,-2.7557251,0
0.23101807,0.078125,0.07305908,0.8778626,1.0763359,-2.4122138,0
0.21978760000000003,0.07379150400000001,0.091674805,1.8549619,1.0458015,-2.4580152,0
0.21948242,0.07348633,0.08898926,-0.19847329,2.4122138,-5.6793895,0
0.22198486,0.072753906,0.09552002,-1.6183206,0.89312977,-4.9770994,0
0.22143555,0.07061767599999999,0.09326172,-1.5877863,-0.24427481,-3.167939,0
0.21978760000000003,0.0725708,0.08972168,-2.4961832000000004,3.2519082999999998,-2.0610688,0
0.22161865,0.075683594,0.08142089999999999,-1.038168,2.70229,-2.0076337,0
0.22918701,0.07580566400000001,0.085754395,0.9160305000000001,2.442748,-1.519084,0
0.21942139,0.0690918,0.083984375,0.122137405,3.8473281999999998,-1.4580153,0
0.22796631,0.076171875,0.08453369,0.6488550000000001,4.328244000000001,-2.2519082999999998,0
0.22711182,0.07330322,0.08654785,-2.465649,2.183206,-2.946565,0
0.21765137,0.07171631,0.09051514,0.64122134,2.389313,0.66412216,0
0.22064209,0.07165527,0.085998535,2.0152671000000004,4.5496182,0.5954198,0
0.22015381,0.07122803,0.08929443,-1.1679389999999998,4.6106873,-2.534351,0
0.22888184,0.067871094,0.08404541,-0.06870229,3.3206108,-0.9541985000000001,0
0.23028564,0.06542969,0.08752441400000001,1.4961832,1.1297709999999999,-0.28244275,0
0.22558594,0.074035645,0.085754395,-0.610687,1.9694656000000004,0.045801528,0
0.22283936,0.072143555,0.09027099599999999,2.183206,1.5801526000000001,0.23664123,0
0.22442627,0.06866455,0.087768555,3.3740457999999998,3.3664122000000005,4.816794,0
0.22937012,0.06286621,0.08099365,4.1297708,0.8778626,3.4732822999999997,0
0.22515869,0.06958008,0.08496094,0.5114504,0.122137405,6.3893127,0
0.22149658,0.07244873,0.08441162,3.8091602,0.8854962,4.2137402999999996,0
0.22644043,0.07531738,0.09106445,5.946564700000001,0.6183206,5.2824425999999995,0
0.22912598,0.07537842,0.08770752,8.320611,1.9923664,8.732824,0
0.22332764,0.07843017599999999,0.089904785,11.030535,0.78625953,9.465649,0
0.22412110000000002,0.072265625,0.07885742,7.2290077,3.0152671000000004,7.969465700000001,0
0.22839355,0.07824707,0.09039307,9.671756,2.6030533,8.648855000000001,0
0.22686768,0.07519531,0.083496094,10.351144999999999,1.8167938999999997,5.40458,0
0.22967529999999997,0.07739258,0.086120605,12.091603,2.6717557999999997,4.4198474999999995,0
0.22155762,0.07641601599999999,0.08764648400000001,8.755725,1.4732825,4.076336,0
0.22949219,0.06744385,0.08557129,13.9007635,1.3435115,4.1984735,0
0.22503662,0.059936523,0.09234619,13.183207000000001,1.6412214,4.9160304,0
0.22155762,0.07080078,0.08148193,15.351145,3.0687022,4.6488547,0
0.21826172,0.07513428,0.08343506,16.0,2.8244274,4.3129773,0
0.23516846,0.0715332,0.09027099599999999,16.984734,1.6564884999999998,6.0839696,0
0.22760010000000003,0.07135010000000001,0.09124756,18.419847,3.5038167999999996,6.9923663000000005,0
0.22216797,0.07086182,0.081848145,20.519083,3.1603053,6.1297708,0
0.22070312,0.06982422,0.08264160000000001,20.366413,4.2061067,7.603053599999999,0
0.22698975,0.07373047,0.0793457,20.068703,5.0076336999999995,7.7175574000000005,0
0.22607422,0.05712890599999999,0.08459473,24.305344,3.40458,8.503817,0
0.22949219,0.07360839999999999,0.08520508,23.465649,3.8931297999999996,8.641221,0
0.21887207,0.06274414,0.09533691400000001,24.076335999999998,1.1603054,10.931297,0
0.22027588,0.06121826,0.07983398400000001,24.435114000000002,1.2061069,7.3664119999999995,0
0.222229,0.072753906,0.09216308599999999,22.816793,0.97709924,10.137404,0
0.23828125,0.07861328,0.09075928,26.32061,-0.053435113,9.312977,0
0.22918701,0.072143555,0.09350586,27.053434000000003,-1.6793894,11.007633,0
0.21978760000000003,0.06469726599999999,0.08874512,26.389313,-0.31297709999999995,8.633588,0
0.22296143,0.07733154,0.101501465,26.954199,2.923664,9.358779,0
0.22198486,0.07397461,0.08636474599999999,30.526718,0.64122134,8.885496,0
0.22485352,0.07714844,0.10198974599999999,30.74809,-4.3206105,6.343511599999999,0
0.21557617,0.06481933599999999,0.10180664,26.687022999999996,-1.4885496,4.2290077,0
0.22528076,0.07202148400000001,0.10723877,26.900763,-0.66412216,4.625954,0
0.21185303,0.06488037,0.09552002,31.473282,1.7786259999999998,3.038168,0
0.21752929999999995,0.079956055,0.08673096,33.221375,2.053435,1.6412214,0
0.21984863,0.06579589999999999,0.09722900400000001,34.221375,6.2137402999999996,-2.4961832000000004,0
0.22235107,0.06274414,0.066589355,40.244274,5.9007635,-4.4885497,0
0.22192383,0.061645507999999995,0.08251953,36.25954,6.4656487,-10.335877,0
0.21405029999999997,0.059265137,0.07507324,29.969465000000003,6.0839696,-15.40458,0
0.22827148,0.063964844,0.07965088,24.122137,6.9389315,-19.190839999999998,0
0.23443604,0.064331055,0.07470703,31.969465000000003,4.328244000000001,-17.122137,0
0.23028564,0.06414795,0.06866455,36.839695,7.2671757,-16.396946,0
0.23443604,0.06573486,0.076171875,39.068703,12.427481,-6.442748,0
0.22369385,0.06500244,0.0725708,44.984734,15.549619,2.0992367,0
0.23834229,0.061340332000000004,0.08917236,50.21374,15.167939000000002,10.320611,0
0.23480225,0.068237305,0.085754395,52.931297,17.145039,16.38168,0
0.24206543,0.06842041,0.08709717,57.938930000000006,20.305344,22.946566,0
0.23718262,0.07745361,0.08673096,60.992367,28.213741,31.42748,0
0.23168945,0.07788086,0.07373047,65.92367,33.343509999999995,36.778625,0
0.21697998,0.070129395,0.08117676,68.61069,34.503820000000005,37.190838,0
0.203125,0.06939697,0.07598877,70.51145,17.847328,28.503816999999998,0
0.20227051,0.07220459,0.08544922,69.503815,12.015267,23.389313,0
0.20123291,0.07464599599999999,0.08508301,62.335876,8.549619,17.366413,0
0.19207764,0.07464599599999999,0.0925293,52.480915,9.389313000000001,8.595419999999999,0
0.19891357,0.07196045,0.10449219,45.519085,6.4961834000000005,1.2366412,0
0.222229,0.07745361,0.10223389,41.114502,6.6335880000000005,-2.29771,0
0.22497559,0.08453369,0.10668945,45.206109999999995,7.1984735,-0.23664123,0
0.23052979,0.07653808599999999,0.10308838,44.76336,13.908397,-1.1145038999999999,0
0.22589111,0.07507324,0.107910156,36.656490000000005,24.076335999999998,-5.9160304,0
0.23712158,0.075683594,0.114746094,30.404581,29.366413,-13.427481,0
0.2855835,0.09509277,0.10894775400000001,49.84733,26.969465000000003,-5.4885497,0
0.30737305,0.09918213,0.11541748,76.9313,33.816795,9.755725,0
0.27929688,0.08905029,0.13403320000000002,88.53435,30.74809,2.183206,0
0.26434326,0.10198974599999999,0.12390137,101.51908,17.320610000000002,-15.748092000000002,0
0.24407959,0.03857422,0.09893799,120.47328,17.160304999999997,-32.17557,0
0.24414062,0.1026001,0.10266113,99.35114,27.648854999999998,-55.0229,0
0.22167969,0.038146973,0.088012695,122.51145,13.938931,-54.137405,0
0.22882080000000002,0.036010742000000005,0.091918945,91.900764,12.732824,-73.45038000000001,0
0.20874023,0.05706787,0.08905029,100.42748,10.282442999999999,-66.618324,0
0.20690918,0.036499023,0.085998535,71.36641,1.9694656000000004,-73.99235999999999,0
0.19128418,0.05114746,0.08160400400000001,80.66412,0.35877863,-56.28244399999999,0
0.18908691,0.025817871000000003,0.07397461,65.31298000000001,-6.5648856,-55.343509999999995,0
0.17608643,0.031921387,0.080200195,33.702290000000005,-8.351144999999999,-42.274809999999995,0
0.17980957,0.044006348,0.06842041,21.229008,-18.633587,-27.580153000000003,0
0.18261719,0.05609131,0.07409668,5.0229006,-18.824427,-15.458015,0
0.20410156,0.054260254,0.08117676,-3.167939,-23.015266,-2.465649,0
0.22589111,0.057006836,0.08898926,-28.099237,-27.496183000000002,-1.0229008,0
0.23620605,0.07684326,0.09820557,-42.748093,-31.847328000000005,0.5496183000000001,0
0.23675537,0.076660156,0.10083008,-57.16030500000001,-29.969465000000003,-3.4427480000000004,0
0.23284912,0.09100342,0.07196045,-73.19847,-12.656488000000001,-7.442748,0
0.2803955,0.093933105,0.10516357400000001,-82.33588,-13.916031,-7.10687,0
0.29718018,0.10278319999999999,0.101623535,-97.9313,-27.091602,-14.015267000000001,0
0.2949829,0.11193848,0.10101318,-112.48855,-33.221375,-3.5496182000000003,0
0.24389648,0.12469482400000001,0.06762695,-116.778625,-21.709923,-8.618319999999999,0
0.2144165,0.12438965,0.07702637,-109.15267,-9.824428,-18.793894,0
0.24761963,0.13372803,0.054870605,-91.183205,-4.396946400000001,-22.923664000000002,0
0.22833252,0.13555908,0.07281494,-49.541985,-9.320611,-29.725191,0
0.21270752,0.11645508,0.057250977,-24.717558,-14.725191,-27.12977,0
0.19354248,0.08953857400000001,0.057800292999999996,-32.53435,-21.496183,-34.572517,0
0.15045166,0.09533691400000001,0.04156494,-60.71755600000001,-24.091601999999998,-41.587788,0
0.14239502,0.115112305,0.031799316,-66.78626,-20.824427,-48.76336,0
0.13684082,0.10864258,0.03277588,-64.63359,-26.274809,-39.23664,0
0.13623047,0.13110352,0.038208007999999995,-70.183205,-22.183207,-35.755726,0
0.14349365,0.16662598,0.03668213,-40.595420000000004,-26.625953999999997,-18.290077,0
0.13543701,0.16436768,0.036193848,-15.656488000000001,-17.51145,-3.5496182000000003,0
0.1317749,0.16729736,0.042419434000000006,-13.312976999999998,-9.21374,-3.0839694,0
0.14489746,0.17364502,0.060180664,-28.259542,1.5648855,-8.702291,0
0.15203857,0.17584229,0.07055664,-26.610687,-0.8015267,-7.465648700000001,0
0.17510986,0.17419434,0.08984375,-20.167938,-4.1374044,-3.7251909,0
0.21612549,0.17150879,0.100097656,-12.106871,-10.885496,6.473282299999999,0
0.23931885,0.17181396,0.10662842,-9.557252,-10.297709,15.320610999999998,0
0.23095703,0.16113281,0.09796142599999999,-5.328244000000001,-3.1603053,16.816793,0
0.22717285,0.14178467,0.10852051,-11.992367,6.412214,14.114504,0
0.24676514,0.13586426,0.10290527,-7.137404400000001,9.961832000000001,12.793892999999999,0
0.2796631,0.12640381,0.12097168,0.5038168,8.526717,19.908398000000002,0
0.29779053,0.1352539,0.113220215,-10.030535,4.0610685,26.038168,0
0.24334717,0.13690186,0.10595703,-4.5419846,5.5801525000000005,25.984734,0
0.23614502,0.13409424,0.08453369,3.8778627,6.6870227,15.7786255,0
0.23486328,0.12945557,0.07281494,47.198475,5.7251905999999995,9.694656,0
0.22674560000000002,0.11053467,0.07336426,80.229004,4.1755724,7.8549619999999996,0
0.20538330000000002,0.09985351599999999,0.05682373,94.65649,-0.96183205,-0.8549618,0
0.19232178,0.07678223,0.052856445,96.099236,-6.2748094000000005,-8.816792999999999,0
0.19598389,0.04638672,0.047668457000000004,69.23664000000001,-8.648855000000001,-24.038168,0
0.19885254,0.043762207000000004,0.029907227,32.290077000000004,-12.282442999999999,-39.549618,0
0.1843872,0.03741455,0.042785645,-2.793893,-25.526718,-49.297709999999995,0
0.1864624,0.048583984000000004,0.029052734,-51.778625,-35.12214,-54.87786,0
0.19616699,0.048461914,0.029846191,-65.36641,-51.206109999999995,-54.335876,0
0.18444824,0.059509277,0.019165039,-76.28244000000001,-48.702290000000005,-55.50382,0
0.20898438,0.08111572,0.020507812,-57.610687,-52.961833999999996,-39.76336,0
0.2076416,0.062316895,0.02758789,-43.389313,-62.519085,-23.366413,0
0.21575928,0.07446289,0.039001465,-58.16794,-62.28244399999999,-6.4885497,0
0.22619629,0.0769043,0.04272461,-65.15267,-63.580154,4.7328243,0
0.21868896,0.08746338,0.031066895,-64.19084000000001,-59.580154,19.366413,0
0.22888184,0.07977295,0.054748535,-64.98473,-54.572517000000005,30.755726,0
0.2902832,0.05822754,0.13299560000000002,-88.37405,-62.519085,37.595420000000004,0
0.31591797,0.07019043,0.15075684,-104.63359,-99.26717,19.954199,0
0.3126831,0.07196045,0.12927246,-108.14503500000001,-101.48092,23.06107,0
0.31713867,0.08459473,0.11657715,-133.28243999999998,-81.05344000000001,15.129771,0
0.26550293,0.0960083,0.07098389,-119.33588,-48.91603,4.221374,0
0.24188232,0.07745361,0.05322265599999999,-99.19084000000001,-17.900763,-10.610686999999999,0
0.25842285,0.07122803,0.054504395,-78.29008,-5.854962,-25.977098,0
0.24963379,0.064941406,0.07391357400000001,-68.54961999999999,-21.908398000000002,-43.793890000000005,0
0.21234131,0.06976318,0.048461914,-113.45801499999999,-39.78626,-53.580154,0
0.19134521,0.10217285,0.036987305,-157.58778,-60.549618,-69.816795,0
0.15539551,0.11383057,-0.00201416,-173.15266,-65.770996,-85.32825,0
0.1461792,0.16027832,-0.0078125,-170.09923999999998,-79.87023,-100.66412,0
0.15441895,0.18841553,0.015930176,-161.48091000000002,-85.938934,-99.45038000000001,0
0.14385986,0.20690918,0.024963378999999997,-141.57253,-96.58015400000001,-93.23664000000001,0
0.14868164,0.19378662,0.028076172000000003,-113.37405,-109.618324,-99.58778000000001,0
0.15466309,0.18933105,0.032714844,-103.34351,-116.183205,-110.56488999999999,0
0.15100098,0.21240234,0.02142334,-109.48092,-123.29771000000001,-124.44275,0
0.15789795,0.21832275,0.032470703,-100.83969,-125.59541999999999,-119.75572,0
0.18371582,0.20758057,0.06866455,-93.87023,-135.10687,-113.9771,0
0.18670654,0.20568848,0.06793213,-94.458015,-145.60306,-113.19084,0
0.21044922,0.22155762,0.06390381,-116.21373999999999,-134.26718,-97.854965,0
0.23736572,0.20837402,0.089904785,-81.29008,-138.8626,-72.76335999999999,0
0.22119139999999998,0.18481445,0.074279785,-42.335876,-145.08397,-55.091602,0
0.1675415,0.17584229,0.0423584,-12.435115,-129.69466,-32.335876,0
0.16278076,0.13079834,0.040222167999999996,-19.801527,-110.03817,-21.641222,0
0.16778564,0.10284424,0.089904785,-52.358779999999996,-112.87786000000001,-24.679389999999998,0
0.20709229,0.11590576,0.047790527,-79.9771,-113.16031000000001,-20.793894,0
0.21783447,0.16430664,0.02331543,-46.16794,-111.35878000000001,-9.160305000000001,0
0.20220947,0.15405273,0.022338867000000002,-5.587786,-77.12977,5.7328243,0
0.2041626,0.09594726599999999,0.11328125,-41.610687,-39.541985,8.137404,0
0.23419189999999998,0.06774902,0.12451172,-9.511451,-139.9084,-15.572519,0
0.1607666,0.07421875,0.041809082000000004,-80.67175,-58.64122,9.847328,0
0.14697266,0.16442871,0.07501221,-84.503815,-44.030533,2.8854961,0
0.13787842,0.17346191,0.038085938,-55.23664,-79.91603,1.5343511,0
0.1328125,0.1864624,0.014709473,-91.70229,-56.610687,13.992367000000002,0
0.1362915,0.27288818,0.024841309,-103.38931,-29.931296999999997,3.6793892,0
0.15808105,0.28491209999999995,0.004394531,-19.57252,-52.908398,15.320610999999998,0
0.18286133,0.24267578,0.04949951,18.198473,-28.206106,26.08397,0
0.18634033,0.21160889,0.08215332,63.564884,-29.183207,33.961834,0
0.18530273,0.16290283,0.08306885,61.38168,-18.10687,37.541985,0
0.19152832,0.15118408,0.08862305,38.587788,-4.8244276,39.610687,0
0.19232178,0.13049316,0.10546875,25.839695000000003,-4.145038,40.14504,0
0.19000244,0.11358642599999999,0.09790039,13.832060999999998,-0.41984734,45.725190000000005,0
0.20611572,0.09692383,0.09197998,7.9541984,3.7099237,53.18320500000001,0
0.19995117,0.08105469,0.099121094,26.57252,-4.6870227,56.335876,0
0.1953125,0.068847656,0.08099365,14.633588,-13.396947,51.343509999999995,0
0.20391846,0.05859375,0.08679199,-7.709923700000001,-15.992367000000002,53.71755600000001,0
0.24365234,0.02947998,0.13952637,-55.793890000000005,-32.267174,51.183205,0
0.23150635,0.020019531,0.1875,-144.94656,-80.10687,28.396946000000003,0
0.18780518,0.05328369,0.15112305,-201.2061,-114.33588,15.259541500000001,0
0.20800781,0.1182251,0.12268066400000001,-250.1374,-90.26717,45.15267,0
0.22424316,0.13928223,0.11419678,-248.55725,-79.145035,70.25191,0
0.24865723,0.15814209,0.11529541,-195.43511999999998,-69.51145,99.16031,0
0.27758790000000005,0.13421631,0.12664795,-146.0687,-64.76335999999999,117.51145,0
0.27209473,0.1473999,0.111450195,-106.59541999999999,-56.274809999999995,127.778625,0
0.270813,0.15948486,0.08679199,-62.549618,-37.519085,132.46565,0
0.25482178,0.15014648,0.09362793,-28.282442,-22.38168,133.8626,0
0.23156738,0.1383667,0.08087158,-17.312977,-3.206107,116.0229,0
0.2220459,0.11834717,0.078308105,-12.167939,7.091603299999999,89.94655999999999,0
0.21435547,0.09484863,0.06933594,-9.312977,9.877863,57.885498,0
0.23480225,0.06964111,0.10211182,-44.0,10.091603,25.824427,0
0.22851562,0.066223145,0.12365723,-105.80153,0.091603056,-13.022901,0
0.24908447,0.08709717,0.11358642599999999,-143.6565,-25.458015,-37.900764,0
0.22552489999999997,0.089660645,0.13684082,-160.51908999999998,-38.87786,-55.389313,0
0.21405029999999997,0.09808349599999999,0.11254883,-173.54199,-46.809162,-61.648853,0
0.19390869,0.105285645,0.11383057,-175.30534,-40.595420000000004,-72.30534,0
0.20111084,0.10815430000000001,0.09509277,-159.61068999999998,-23.824427,-72.9542,0
0.22296143,0.10498047,0.082214355,-138.22899999999998,-9.236641,-74.36641,0
0.22436523,0.092285156,0.07904053,-117.0458,5.0076336999999995,-68.91603,0
0.22503662,0.10394287,0.07293701,-89.24428,15.297709,-58.931297,0
0.2232666,0.093566895,0.07305908,-55.862595,21.145039,-56.32824300000001,0
0.20507812,0.07391357400000001,0.07055664,-40.55725,28.496183000000002,-45.992367,0
0.1921997,0.076049805,0.06628418,-27.465649,28.87023,-36.068703,0
0.21197510000000003,0.07952881,0.070373535,-21.206106,29.076335999999998,-18.801527,0
0.23022461,0.07421875,0.07983398400000001,-12.267176,23.549618,-3.2595419999999997,0
0.24273682,0.08044433599999999,0.08489989999999999,-6.671755999999999,14.412213000000001,9.519084,0
0.22937012,0.07336426,0.08636474599999999,-6.190840000000001,5.0992365,14.335876999999998,0
0.22528076,0.07385254,0.09106445,-13.847328,0.8015267,13.541985,0
0.23352051,0.08489989999999999,0.080078125,-11.038167999999999,3.4198472,13.473282999999999,0
0.23095703,0.08721924,0.080078125,-2.0458016,6.847328,12.290076,0
0.22601318,0.09094238,0.06951904,11.587786999999999,9.21374,8.587786999999999,0
0.21984863,0.082214355,0.07879639,26.793894,11.206107000000001,9.106871,0
0.23205566,0.07867432,0.080566406,36.732826,9.404580000000001,6.1297708,0
0.24078369,0.072753906,0.08679199,41.08397,2.1755726,4.3587785000000006,0
0.22906494,0.06854248,0.09136963,33.9771,-2.2442749,-0.9160305000000001,0
0.21081543,0.048583984000000004,0.09301758,18.473282,-7.9923663000000005,-14.389313000000001,0
0.22070312,0.051330565999999994,0.09472656,-8.320611,-10.175572,-25.51145,0
0.2130127,0.06201172,0.09637451,-21.343512,-16.091601999999998,-32.435116,0
0.21276855,0.062683105,0.08758545,-26.694656,-18.068703,-36.748093,0
0.20593262,0.06518555,0.09466553,-25.396946,-14.946565,-33.85496,0
0.23553467,0.059143065999999994,0.11096191400000001,-31.396946000000003,-15.21374,-29.656488,0
0.24926758,0.07189941400000001,0.09344482400000001,-26.08397,-17.595419,-23.045801,0
0.22003174,0.07330322,0.096191406,-24.244274,-13.908397,-16.763360000000002,0
0.19812012,0.06488037,0.09307861,-29.450382,-7.3893127000000005,-17.793894,0
0.21130371,0.07446289,0.08746338,-28.076335999999998,-0.57251906,-21.564885999999998,0
0.21124268,0.081970215,0.08941650400000001,-12.847328,8.206107000000001,-18.030535,0
0.22137451,0.083984375,0.08636474599999999,8.725191,13.229007999999999,-8.274809,0
0.22497559,0.07745361,0.0881958,19.221375,15.450381,-2.5267177000000003,0
0.22875977,0.07360839999999999,0.07745361,22.076335999999998,18.885496,0.061068702,0
0.23657227,0.07653808599999999,0.070251465,16.458015,22.297710000000002,1.9160305,0
0.23272705,0.0703125,0.07788086,15.259541500000001,19.931297,-2.3740457999999998,0
0.2298584,0.06768799,0.07873535,7.862595599999999,15.526717000000001,-5.10687,0
0.22601318,0.05432129,0.08087158,3.5801528,5.809159999999999,-13.610686999999999,0
0.23608398,0.06317139,0.08923339999999999,-6.519083999999999,-0.15267175,-18.42748,0
0.22430419999999998,0.066223145,0.08013916,-14.679389000000002,-0.99236643,-18.099237,0
0.23010254,0.06695557,0.0758667,-13.045800999999999,-2.778626,-16.480917,0
0.23358154,0.061279297,0.08172607400000001,-4.809159999999999,1.0534351,-10.816792999999999,0
0.22406006,0.07702637,0.08172607400000001,-2.4580152,2.2137403,-5.374046,0
0.2244873,0.07421875,0.07891846,2.5801528,0.24427481,0.33587787,0
0.22406006,0.06616211,0.08148193,-4.2671757,0.86259544,-1.8931297999999999,0
0.22155762,0.07507324,0.081970215,-4.664122,-1.389313,-4.557252,0
0.21588135,0.07385254,0.0793457,-5.038168,-3.3358779999999997,-6.7251906,0
0.215271,0.07489014,0.09033203,-2.7633588,-4.396946400000001,-5.442748,0
0.22662354,0.074157715,0.08428955,-1.6030535,-4.2290077,-1.3587786,0
0.22650146,0.06933594,0.09082031,-3.5725190000000002,-3.2900763,-3.2824428,0
0.22869873,0.060546875,0.09503174,-7.9160304,0.43511450000000007,-2.6183207000000004,0
0.23443604,0.06744385,0.09936523400000001,-11.732824,-0.48854962,-6.2671757,0
0.23138428,0.074401855,0.08935547,-12.549619,1.4732825,-7.3587785000000006,0
0.23291016,0.07086182,0.08807373,-10.618319999999999,0.740458,-11.167939,0
0.21624756,0.08551025400000001,0.09057617,-12.312977,1.4580153,-11.511451,0
0.22161865,0.05609131,0.07940674,-7.6335880000000005,1.7480916000000002,-9.404580000000001,0
0.20654297,0.06762695,0.09655762,-4.7862597000000004,1.9389313000000001,-4.89313,0
0.21716309,0.06945801,0.09075928,-0.83206105,6.0992365,0.31297709999999995,0
0.21826172,0.07598877,0.09906006,-0.19847329,6.5419846,8.885496,0
0.22979736,0.07653808599999999,0.09008789,5.603053599999999,6.885496000000001,12.763359,0
0.22741699,0.0758667,0.08782959,6.259542,9.015267,15.358779,0
0.22821045,0.08306885,0.08734131,6.0,7.80916,18.717558,0
0.22668457,0.08026123,0.08880615,9.580152499999999,7.603053599999999,15.687023000000002,0
0.23162842,0.08288574,0.08660889,11.847328,5.671755999999999,12.320611,0
0.2322998,0.077941895,0.09448242,10.618319999999999,7.70229,7.9923663000000005,0
0.22497559,0.078308105,0.090026855,11.374044999999999,4.5114503,3.5419848,0
0.21917725,0.07611084,0.09539795,10.175572,2.7099237,-0.52671754,0
0.22314453,0.07977295,0.09204101599999999,13.625955,1.3435115,-2.465649,0
0.22808838,0.07086182,0.08984375,15.389313000000001,3.4198472,-2.8396947,0
0.21856689999999998,0.07470703,0.0859375,15.045801,0.19083970000000003,-4.0,0
0.22100830000000002,0.07763672,0.09118652,9.931297,-1.1679389999999998,-6.4198474999999995,0
0.23468018,0.06695557,0.09826660000000001,7.8549619999999996,-2.038168,-10.465649,0
0.22955322,0.06365967,0.09106445,1.6717557,-4.7251905999999995,-14.167939000000002,0
0.23071289,0.06793213,0.08630371,-1.7786259999999998,-2.9389312000000003,-17.694656,0
0.22302246,0.06359863,0.09942627,-0.2519084,-2.870229,-23.259542,0
0.22198486,0.066223145,0.09448242,0.8778626,-1.4580153,-22.778625,0
0.21508789,0.06695557,0.09265137,2.1374047000000003,-3.3664122000000005,-21.496183,0
0.21679688,0.05834961,0.09240723,3.6641220000000003,-3.5190839999999994,-19.305344,0
0.21551514,0.059020996,0.09820557,0.27480915,-2.8244274,-15.0992365,0
0.21746826,0.06323242,0.09362793,-2.9160306,-2.6793892,-11.824428,0
0.21362305,0.06701660000000001,0.09045410000000001,-7.541984599999999,-1.8931297999999999,-7.6335880000000005,0
0.21313477,0.06726074,0.09039307,-6.0229006,-1.5877863,-2.4580152,0
0.21990967,0.062316895,0.091308594,-4.1603055,-0.31297709999999995,0.6259541999999999,0
0.21832275,0.064453125,0.09313965,-7.19084,1.6259542,3.40458,0
0.22192383,0.07305908,0.08331299,-8.7786255,1.8091604,4.2442746,0
0.22283936,0.07360839999999999,0.08746338,-10.427481,1.7404580000000003,5.3511453,0
0.22412110000000002,0.06933594,0.08392334,-10.297709,2.5038167999999996,6.0,0
0.23657227,0.06707764,0.08099365,-8.656488000000001,1.9160305,4.946564700000001,0
0.21746826,0.078063965,0.08947754,-7.4198475,1.9541985,5.038168,0
0.22253418,0.06860351599999999,0.07916260000000001,-5.0,3.3282442000000003,5.5114503,0
0.22314453,0.07507324,0.08422851599999999,-2.4732822999999997,3.7251909,5.5114503,0
0.22351074,0.07366943,0.08862305,-3.8473281999999998,-0.73282444,5.0076336999999995,0
0.22009277,0.08026123,0.0859375,-4.190840000000001,-0.6870229,4.4885497,0
0.23303223,0.074157715,0.08605957,-4.0458016,-1.0534351,3.3587787000000002,0
0.23529053,0.08306885,0.08087158,-3.3358779999999997,-1.1832061000000003,3.5877862,0
0.22601318,0.076171875,0.084472656,-2.6412212999999998,-1.7404580000000003,2.7328243,0
0.22637939999999998,0.08557129,0.08807373,0.23664123,-0.3740458,-1.0076336,0
0.20806885,0.0803833,0.07940674,3.3282442000000003,-1.7175573,-1.4732825,0
0.23956299,0.08905029,0.08770752,2.6641220000000003,-0.8396947,-3.9847328999999996,0
0.22265625,0.082092285,0.08972168,5.5648856,0.610687,-7.5648856,0
0.22283936,0.07952881,0.08746338,3.5419848,-0.34351146,-10.068703,0
0.23059082,0.07824707,0.08514404,4.4198474999999995,0.19083970000000003,-10.480916,0
0.21069336,0.07391357400000001,0.076293945,4.9694657,-1.2519083999999998,-12.969465,0
0.21856689999999998,0.07720947,0.07965088,7.5725193,1.1068702,-11.564885,0
0.23461914,0.07263183599999999,0.08551025400000001,6.3587785000000006,1.5725191,-13.526717000000001,0
0.21795654,0.07849121,0.09106445,6.89313,0.0,-12.801527,0
0.22930908,0.06958008,0.08148193,7.9389315,0.6183206,-12.992367,0
0.23333739999999997,0.07421875,0.08642578,7.8320612999999994,2.6793892,-10.9007635,0
0.21972656,0.07244873,0.10046387,7.8320612999999994,2.5648854,-12.129771,0
0.23254395,0.07983398400000001,0.08172607400000001,9.748092,3.8778627,-8.534351,0
0.21783447,0.07122803,0.09814453,12.007633,5.6870227,-7.8244276,0
0.21759033,0.06927489999999999,0.10015869,11.618319999999999,5.9007635,-6.0458016,0
0.22589111,0.07348633,0.07952881,11.198473,5.931298,-3.6106870000000004,0
0.21911621,0.06854248,0.10113525400000001,12.511451,4.8778625,-1.5572518999999998,0
0.22241211,0.067871094,0.09472656,10.473283,4.763358599999999,1.9160305,0
0.21838379,0.06671142599999999,0.09210205,9.725191,4.2137402999999996,3.9847328999999996,0
0.22644043,0.06994629,0.09588623,9.114504,4.2290077,2.9770992,0
0.21679688,0.07556152,0.09124756,7.221374000000001,3.70229,4.5343513,0
0.22332764,0.07525635,0.08306885,5.10687,2.870229,5.816794,0
0.22442627,0.07751465,0.08898926,2.610687,1.0152671,3.2748091,0
0.22521973,0.07684326,0.09118652,0.7251908,-0.22900763,-0.8854962,0
0.23034668,0.07165527,0.08850098,0.4274809,-2.221374,-4.5114503,0
0.22796631,0.07128906,0.08752441400000001,-0.49618322,-1.2977100000000001,-4.4656487,0
0.22821045,0.0715332,0.0859375,0.48091602,0.33587787,-6.6793895,0
0.21972656,0.076293945,0.08697510000000001,3.1374047000000003,-2.480916,-5.931298,0
0.22137451,0.076293945,0.08947754,5.4198474999999995,-2.206107,-5.656488400000001,0
0.22143555,0.06585693,0.08496094,3.6183207000000004,-1.1984733,-4.3816795,0
0.21697998,0.08099365,0.08514404,4.2900763,1.3816794,-1.1145038999999999,0
0.21838379,0.074157715,0.081970215,11.80916,2.6946564,3.8396947,0
0.21887207,0.07330322,0.08129883,19.099237,1.0152671,5.221374,0
0.22155762,0.06744385,0.08013916,15.992367000000002,1.5725191,8.908397,0
0.22406006,0.06817627,0.08911133,5.7862597000000004,-2.1755726,3.167939,0
0.22583008,0.070251465,0.08728027,0.53435117,-3.1908397999999996,0.4274809,0
0.22265625,0.07092285,0.08764648400000001,-0.64122134,-6.709923700000001,-0.39694658,0
0.22186279999999997,0.06542969,0.08331299,-0.19083970000000003,-4.740458,0.32824427,0
0.22631836,0.07720947,0.08374023400000001,1.0763359,-4.740458,3.076336,0
0.2144165,0.07543945,0.09136963,3.7862597,1.0992366000000002,4.9923663000000005,0
0.21936035,0.07397461,0.08880615,4.6946564,-2.4198472,4.8702292,0
0.21850586,0.07904053,0.08294678,3.1374047000000003,0.41984734,5.3587785000000006,0
0.22442627,0.07775879,0.09222412,8.717557000000001,1.1908396,7.7862597000000004,0
0.21392822,0.07476807,0.09313965,6.396946400000001,0.07633588,5.946564700000001,0
0.22003174,0.07495117,0.0803833,0.38167940000000006,5.4274807,1.8320610000000002,0
0.22692871,0.08013916,0.07739258,4.7099237,4.519083999999999,1.8931297999999999,0
0.22625732,0.07556152,0.07757568,3.5114503,7.587786,-0.129771,0
0.21899414,0.07421875,0.07470703,5.038168,5.0305343,-2.870229,0
0.22680664,0.07543945,0.07971191400000001,0.86259544,4.847328,-8.572519,0
0.22491455,0.07397461,0.08117676,-3.0229008,2.870229,-11.709924,0
0.22460938,0.07318115,0.07824707,-7.29771,2.7175572,-14.022901000000001,0
0.21801758,0.0758667,0.078186035,-6.961832000000001,2.534351,-15.587786999999999,0
0.22332764,0.07849121,0.07116699,-3.6106870000000004,3.6183207000000004,-12.732824,0
0.22381592,0.068847656,0.078125,2.3511450000000003,3.4427480000000004,-10.396947,0
0.22998047,0.07061767599999999,0.07312012,-0.8778626,4.366412,-6.328244000000001,0
0.22918701,0.0690918,0.07904053,-0.9465648999999999,3.9923663,-6.2137402999999996,0
0.23272705,0.07556152,0.07751465,0.8396947,3.7175572,-4.0610685,0
0.23443604,0.06628418,0.076293945,-0.022900764,2.4198472,-5.7251905999999995,0
0.24151611,0.06951904,0.08422851599999999,-0.2977099,2.9770992,-3.2671757,0
0.23321533,0.07208252,0.070129395,-1.0839695,1.4122137,-6.396946400000001,0
0.23046875,0.07159424,0.07598877,-0.46564886,0.58778626,-6.587786,0
0.22735596,0.07537842,0.07391357400000001,-0.5038168,-0.23664123,-3.5572519999999996,0
0.22869873,0.08288574,0.07647705,2.6259542000000002,1.5114504,-0.022900764,0
0.22808838,0.076293945,0.06860351599999999,5.0458016,2.053435,4.5419846,0
0.22375488,0.06738281,0.070251465,5.4580154,0.5801527,2.8625952999999997,0
0.21630860000000002,0.06671142599999999,0.07104492,0.14503817,-1.3282443000000002,2.480916,0
0.24304199,0.07354736,0.07788086,-1.6564884999999998,-1.0687023,1.1755725000000001,0
0.22558594,0.08215332,0.07043457,0.061068702,-0.71755725,-1.6641221000000002,0
0.22912598,0.07098389,0.07525635,4.5801525000000005,-3.3129769999999996,-1.7251908999999999,0
0.23144531,0.0758667,0.06994629,0.6183206,1.5954198999999998,-5.4961834000000005,0
0.2166748,0.07507324,0.09594726599999999,0.90839696,0.90076333,-3.5114503,0
0.21453857,0.06225586,0.078186035,-1.9847328999999998,0.06870229,-6.473282299999999,0
0.22399902,0.07476807,0.091674805,-2.0305343000000002,-1.4122137,-4.9160304,0
0.23071289,0.0690918,0.09405517599999999,-1.9465648999999998,-1.6870228999999999,-5.2748094000000005,0
0.22674560000000002,0.06988525400000001,0.080566406,3.5419848,2.6412212999999998,-1.6717557,0
0.21795654,0.06915283,0.09112549,1.7251908999999999,-3.7480917000000002,-8.076336,0
0.22283936,0.06854248,0.08300781,-5.0229006,-3.6412212999999998,-12.961832000000001,0
0.22357178,0.06976318,0.09240723,-7.3206105,-4.0,-15.916031,0
0.21722412,0.06988525400000001,0.091308594,-6.091603299999999,-4.442748,-16.274809,0
0.21307373,0.07086182,0.09442139,-1.4045801000000002,-1.3435115,-14.21374,0
0.2244873,0.06945801,0.093811035,-1.2748091000000001,-1.2671756,-8.427481,0
0.22619629,0.0647583,0.08648682,0.46564886,1.9465648999999998,-4.3587785000000006,0
0.22668457,0.06024169999999999,0.093566895,-0.07633588,2.2748091,-1.8549619,0
0.22015381,0.06774902,0.0859375,-4.076336,0.8549618,-1.3969465,0
0.2310791,0.06903076,0.08764648400000001,-5.2900763,-0.16030534,-5.335878,0
0.22363281,0.06683349599999999,0.09143066400000001,-6.8702292,2.6488549999999997,-4.6412214999999994,0
0.22845459,0.0690918,0.085754395,-4.2290077,1.7633588,-4.068702,0
0.21386719,0.06726074,0.08813476599999999,-3.1145039,4.0229006,-3.6717557999999997,0
0.22717285,0.06976318,0.07775879,-4.923664,2.610687,-1.4274809,0
0.22503662,0.060180664,0.09399414,-3.8625953,3.5877862,2.9694657,0
0.22473145,0.06225586,0.08361816400000001,-6.2671757,3.8549618999999997,-1.389313,0
0.23364258,0.06414795,0.09332275400000001,-10.549619,2.0687022,-3.221374,0
0.23724365,0.059692382999999995,0.08856201,-12.656488000000001,3.5267177000000003,-3.3435113,0
0.23101807,0.059936523,0.085998535,-10.198473,0.53435117,-5.6183205,0
0.2220459,0.05847168,0.08459473,-12.244275,1.9770991999999998,-5.671755999999999,0
0.21881104,0.06341553,0.08111572,-11.038167999999999,2.3969467,-4.473282299999999,0
0.23480225,0.05883789,0.09423828,-14.824428,1.9694656000000004,-4.6106873,0
0.23223877,0.05987549,0.09301758,-18.694656,1.0839695,-2.816794,0
0.23236084,0.058532715,0.09082031,-23.824427,0.03816794,-2.2824428,0
0.22570801,0.055541992000000005,0.08514404,-24.954199,-0.20610687,0.77099234,0
0.22344970000000003,0.058166504,0.08117676,-24.946566,2.6946564,3.961832,0
0.22497559,0.05517578,0.08856201,-22.42748,2.2671757,9.862596,0
0.22363281,0.05230713,0.07928467,-22.549618,1.5419847,12.297709,0
0.23022461,0.050476074,0.09649658,-19.687023,0.22900763,13.473282999999999,0
0.21557617,0.059326172,0.084106445,-20.847328,-0.114503816,16.725191,0
0.22796631,0.068481445,0.08465576,-19.007633,0.32824427,19.42748,0
0.23083496,0.06604004,0.09387207,-16.366413,-0.9312976999999999,22.022902,0
0.23498535,0.058532715,0.09539795,-14.709923999999999,-2.129771,19.068703,0
0.23583984,0.05328369,0.09027099599999999,-18.320610000000002,-4.2977099999999995,16.732824,0
0.24554443,0.060913086,0.08795166,-20.580153,-6.091603299999999,11.106871,0
0.23181152,0.06103515599999999,0.109436035,-20.503817,-6.0076336999999995,3.053435,0
0.2310791,0.061523438,0.08770752,-19.877863,-5.9694657,-0.22137405,0
0.21697998,0.066345215,0.09057617,-13.251907999999998,-1.4580153,-0.6259541999999999,0
0.22039795,0.066345215,0.083496094,-7.9541984,-0.045801528,-1.8549619,0
0.23327637,0.060424805,0.08795166,-3.7251909,0.5801527,-0.84732825,0
0.22119139999999998,0.06408691400000001,0.08544922,-3.961832,-0.22900763,-1.8015267,0
0.22845459,0.06402588,0.08569336,-3.7709922999999996,0.22137405,-3.8015267999999995,0
0.22613525,0.068847656,0.08642578,-1.1068702,-0.26717559,-5.6488547,0
0.24273682,0.06347656,0.07855224599999999,-3.6106870000000004,-0.16793893,-7.778625999999999,0
0.23236084,0.058044434000000006,0.08734131,-3.2748091,-0.610687,-12.320611,0
0.22387695,0.0647583,0.10058594,-1.7328244,-2.0229008,-16.114504,0
0.23059082,0.064331055,0.08441162,1.3358778999999998,-0.36641222,-18.862595000000002,0
0.22546387,0.06738281,0.08215332,0.6870229,-0.061068702,-18.08397,0
0.22149658,0.054626465,0.105285645,5.7480917,2.129771,-22.389313,0
0.21612549,0.059570312,0.09411621,3.9770992,0.41221374,-19.961832,0
0.22351074,0.057250977,0.09594726599999999,6.1221375,1.2748091000000001,-24.480917,0
0.22406006,0.05419922,0.09539795,6.526717700000001,3.8625953,-21.656488,0
0.21618652,0.053527832000000004,0.09893799,5.7557254,3.1603053,-22.61832,0
0.22320557,0.05224609400000001,0.09680176,6.7251906,3.870229,-18.93893,0
0.21832275,0.053588867000000005,0.091918945,4.2137402999999996,4.412214,-20.290077,0
0.21661377,0.050109863,0.09173584,1.1984733,4.10687,-18.076335999999998,0
0.21105957,0.05432129,0.085998535,1.7251908999999999,5.183206,-19.114504,0
0.21148682,0.051696777,0.08264160000000001,-0.20610687,6.5496182,-15.847328,0
0.19653320000000002,0.04827881,0.08856201,1.9007633999999998,8.0992365,-13.450381,0
0.20166016,0.04449463,0.08526611,1.1297709999999999,8.625955000000001,-13.152672,0
0.19451904,0.04638672,0.08551025400000001,-1.9694656000000004,8.648855000000001,-13.076336,0
0.19622803,0.039245605,0.10064697,-8.038167999999999,4.557252,-15.236641,0
0.19720459,0.047790527,0.08679199,-12.206107000000001,5.4885497,-8.801527,0
0.18334961,0.04296875,0.09509277,-12.328244,5.328244000000001,-5.5343513,0
0.19689941,0.04107666,0.09466553,-20.717558,8.679389,-1.4961832,0
0.17626953,0.04534912,0.08953857400000001,-19.755726,6.6488547,3.0305343,0
0.19012451,0.049804688,0.093688965,-23.557251,10.564885,5.4351144,0
0.18054199,0.039855957000000004,0.10504150400000001,-23.679389999999998,7.7862597000000004,2.8625952999999997,0
0.18139648,0.042419434000000006,0.11413574,-33.381679999999996,11.442748,-3.2900763,0
0.17010498,0.042907715,0.09576416,-25.694656,7.6793895,-2.3969467,0
0.17565918,0.044067382999999995,0.09631348,-16.900763,12.297709,1.9694656000000004,0
0.15246582,0.036132812,0.10815430000000001,-10.358779,7.328244000000001,-7.2748094,0
0.12561035,0.01965332,0.09881592,-13.160305,6.80916,-15.870229,0
0.14801025,0.035339355,0.08074951,-21.320610000000002,9.664123,-20.396946,0
0.13519287,0.030029297000000003,0.08685303,-17.91603,6.70229,-20.885496,0
0.11804199,0.018615723,0.08636474599999999,-21.374046,-1.8244275,-21.267176,0
0.16156006,0.024230957,0.09979248,-43.671757,0.259542,-11.419847500000001,0
0.17547607,0.036132812,0.09576416,-39.244274,-15.862596,-11.068703,0
0.16906738,0.026184082,0.10559082,-58.251906999999996,-11.129771,-11.671756,0
0.18634033,0.04534912,0.10052489999999999,-52.862595,-18.801527,-18.923664000000002,0
0.18005371,0.057006836,0.08264160000000001,-40.44275,-10.358779,-9.847328,0
0.19256592,0.05657959,0.10119629,-25.320610000000002,-11.0992365,-6.778625999999999,0
0.19720459,0.06481933599999999,0.11358642599999999,-18.709923,-14.893129,-4.885496,0
0.23046875,0.059570312,0.11303711,-18.816793,-18.236639999999998,-3.4885497,0
0.25445557,0.09320068,0.10394287,-19.213741,-10.961832000000001,8.656488000000001,0
0.260437,0.091796875,0.12420654,0.03816794,-16.076335999999998,16.854961,0
0.25964355,0.080200195,0.14349365,16.908398000000002,-22.709923,25.526718,0
0.25738525,0.058166504,0.121154785,13.885496,-19.221375,24.08397,0
0.27288818,0.049438477,0.12786865,0.16030534,-6.961832000000001,22.519083,0
0.28118896,0.06726074,0.14245605,-10.465649,-1.4656489,24.984734,0
0.29412842,0.088378906,0.12469482400000001,-8.137404,-6.0305343,29.244274,0
0.29742432,0.07873535,0.11663818,-8.129771,2.29771,24.961832,0
0.29608154,0.059570312,0.12567139,-1.4122137,-3.6259542000000002,10.824428,0
0.296875,0.06921387,0.13763428,-22.419847,-6.862595599999999,-11.954199000000001,0
0.2826538,0.076293945,0.11871338,-0.06870229,-15.160305,-19.763360000000002,0
0.2689209,0.05908203,0.10449219,-0.8091603,-14.78626,-21.923664000000002,0
0.24865723,0.0690918,0.103393555,-12.2213745,-4.8015265,-16.076335999999998,0
0.23059082,0.087768555,0.10144043,-4.809159999999999,1.6946564999999998,-7.259542,0
0.23901367,0.047424315999999994,0.12011719,10.839694999999999,5.664122,-0.60305345,0
0.24780273,0.026123047000000003,0.12664795,1.480916,16.274809,-2.0076337,0
0.23895264,0.038269042999999996,0.11584473,-7.4885497,14.366412,-11.793892999999999,0
0.2514038,0.07141113,0.10449219,-15.984732999999999,7.160305499999999,-13.320610999999998,0
0.22198486,0.060302734000000004,0.10546875,34.809162,-16.862595000000002,-0.38167940000000006,0
0.21832275,0.006713866999999999,0.099731445,41.404579999999996,-23.824427,5.442748,0
0.22491455,0.01574707,0.08270264,21.793894,-15.580152499999999,0.32061067,0
0.23248291,0.020019531,0.08300781,8.725191,-2.908397,3.0839694,0
0.22149658,0.012573242,0.09918213,-2.1908397999999996,-4.931298,1.0152671,0
0.22497559,0.024291992000000002,0.08868408,-4.5725193,-11.664123,-0.6259541999999999,0
0.21813965,0.020568848,0.08618164,13.374045,-20.625954,6.3893127,0
0.21551514,0.005432129,0.08569336,-3.8778627,-5.2442746,5.8015265,0
0.22717285,0.03753662,0.09442139,-8.664123,-9.961832000000001,8.427481,0
0.22930908,0.039245605,0.105285645,-2.2595419999999997,-18.473282,8.007633,0
0.22680664,0.020202637,0.09667969,-1.9694656000000004,-22.412214000000002,9.541985,0
0.23895264,0.018249512,0.07965088,-15.916031,-22.671754999999997,2.5114503,0
0.2522583,0.04437256,0.08453369,-21.526718,-27.244274,0.6183206,0
0.22930908,0.03277588,0.07531738,-16.534351,-22.992367,1.0534351,0
0.22790527,0.008239746,0.07482910000000001,-21.885496,-16.748089999999998,-1.351145,0
0.21875,0.009094238000000001,0.06335449,-33.587788,1.0076336,0.2519084,0
0.21899414,0.03778076,0.05053711,-32.755726,1.5267175,-6.671755999999999,0
0.22698975,0.042541504,0.06652832,1.8778626,-9.893129,-3.9389312000000007,0
0.23522949,0.030822753999999997,0.060668945,-6.0458016,0.030534351,-2.6717557999999997,0
0.22534179999999995,0.020446777,0.06567383,-5.4503818,9.038167999999999,-2.778626,0
0.23779297,0.041015625,0.07263183599999999,-12.908397,13.480916,-0.07633588,0
0.22540283,0.032958984,0.080200195,3.9694656999999998,3.2290077,-0.259542,0
0.21325684,0.03363037,0.08703613,-2.7709923,9.0992365,0.9847328000000002,0
0.21606445,0.024658202999999997,0.08068848,15.40458,12.0,5.8244276,0
0.23162842,0.016357422,0.08465576,6.3816795,11.732824,6.526717700000001,0
0.23175049,0.022521972999999997,0.07983398400000001,-24.404581,6.1679387000000006,3.832061,0
0.21929932,0.015808105,0.07421875,-31.93893,7.465648700000001,-0.07633588,0
0.22351074,0.01159668,0.08074951,15.679389000000002,5.633588,5.221374,0
0.22442627,0.008666992,0.07861328,-10.824428,15.755725,1.7862595000000001,0
0.22070312,0.025634766,0.08343506,-11.671756,14.312976999999998,0.19083970000000003,0
0.230896,0.027832031,0.08734131,-49.648853,18.671754999999997,-5.7938933,0
0.22711182,0.024230957,0.08972168,-31.412214000000002,9.9007635,-4.7328243,0
0.21502686,0.028991700000000002,0.08660889,-16.358778,6.6793895,-4.9389315,0
0.22253418,0.032592773,0.10296631,14.7786255,-3.2671757,-0.32824427,0
0.22467041,0.007507324,0.088378906,24.687023,-17.977098,4.885496,0
0.22149658,0.007507324,0.0914917,19.053434,-1.1297709999999999,10.381680000000001,0
0.22814941,0.008178711,0.07580566400000001,28.10687,-1.8244275,11.656488000000001,0
0.23760986,0.049560547,0.06994629,35.17557,-6.9847326,6.442748,0
0.21386719,0.034240723,0.07366943,82.83206,2.9847328999999996,22.0,0
0.22106934,0.020690918,0.072143555,47.244274,-0.8091603,10.129771,0
0.23046875,0.040771484,0.07244873,45.76336,-2.7099237,4.0992365,0
0.21905518,0.01159668,0.09997558599999999,57.068703,-5.671755999999999,6.5343513,0
0.24114989999999997,0.01373291,0.04888916,67.862595,-1.480916,9.885496,0
0.2388916,-0.004394531,0.049987792999999996,53.14504,-5.3129773,9.679389,0
0.21716309,0.014953613000000001,0.07989502,6.8549619999999996,-1.3740458,2.923664,0
0.24761963,-0.0010986330000000001,0.11102295,-12.0992365,6.10687,1.3358778999999998,0
0.24456787,-0.016174316,0.07873535,-9.297709,3.8549618999999997,4.2671757,0
0.2637329,0.018859863,0.08343506,-45.900764,2.3816792999999996,1.8854961,0
0.2619629,0.03717041,0.08843994,-32.793890000000005,-0.19847329,-7.1297708,0
0.25408936,-0.007568359,0.08697510000000001,11.19084,-6.9160304,-8.175572,0
0.23156738,-0.008850098,0.080200195,-19.847328,-2.4122138,-5.053435299999999,0
0.23303223,0.010131836,0.08282471,-15.946565,-3.4961832000000004,-1.610687,0
0.23327637,0.032043457000000004,0.09692383,-24.534351,4.4198474999999995,-4.89313,0
0.23077393,0.006652831999999999,0.10064697,-25.099237,1.3206106000000002,-4.816794,0
0.22387695,-0.0026245120000000003,0.080200195,-11.503817,12.664123,-7.740458,0
0.24682617,-0.013549805,0.05279541,12.251908,18.610687,-13.0992365,0
0.24945068,0.00982666,0.06506348,25.984734,2.465649,3.5419848,0
0.24993896,0.001037598,0.06762695,-24.496183,21.969465,-1.9770991999999998,0
0.26086426,-0.025695799999999998,0.09686279,-26.42748,35.23664,-7.534351299999999,0
0.28527832,0.006408690999999999,0.11425781,-38.679390000000005,40.21374,-0.129771,0
0.29016113,0.036804199999999995,0.115112305,-22.10687,36.709922999999996,6.2671757,0
0.31011963,0.055419922,0.10028076,11.496183,17.793894,18.160304999999997,0
0.28466797,0.019042969,0.11389160000000002,18.770992,27.664121999999995,23.61832,0
0.29174805,0.024169922000000003,0.10180664,19.374046,28.045801,17.977098,0
0.29071045,0.03277588,0.105529785,30.900763,29.450382,20.137404999999998,0
0.29638672,0.005371094,0.13226318,40.267174,20.404581,25.404581,0
0.29370117,-0.000122,0.13354492,29.0,16.48855,22.08397,0
0.27764893,0.008361816,0.13244629,35.427483,7.7328243,18.351145000000002,0
0.2748413,-0.005065918,0.13256836,47.129771999999996,-2.2519082999999998,20.770992,0
0.2755127,0.008483886999999999,0.14019775,41.320609999999995,-10.709924,17.0,0
0.27062988,0.02130127,0.12670898,50.297709999999995,-24.007633,14.343511999999999,0
0.26818848,0.001037598,0.13830566,41.992367,-27.091602,3.5877862,0
0.26135254,0.0008539999999999999,0.13952637,20.175573,-32.679390000000005,-10.083969,0
0.24804688,0.01586914,0.12261963,5.5419846,-30.770992,-21.259542,0
0.2588501,0.02520752,0.10095215,11.709924,-24.190839999999998,-23.931297,0
0.24322510000000003,0.009033203,0.10516357400000001,14.603053,-16.343512,-23.984734,0
0.22503662,0.006774901999999999,0.10748291,14.435115,-12.366412,-23.442749,0
0.21704102,0.019226074,0.09643555,21.396946,-4.2900763,-15.969465,0
0.20812988,0.016784668,0.09661865,23.290077,0.16030534,-16.053434,0
0.18481445,0.003845215,0.104003906,21.648854999999998,-0.24427481,-18.435114000000002,0
0.19537354,0.017822266,0.08551025400000001,11.419847500000001,-3.206107,-22.229008,0
0.19226074,0.016601562,0.10052489999999999,20.167938,-6.1984735,-22.007633,0
0.16296387,0.029968262000000002,0.09667969,12.656488000000001,-2.1526718,-26.786259,0
0.17901611,0.025390625,0.09667969,5.59542,-4.8702292,-36.46565,0
0.18664551,0.026733398,0.09136963,-9.083969,-1.7709924,-40.694656,0
0.20013428,0.032348632999999995,0.09155273400000001,-18.312977,4.7251905999999995,-41.709922999999996,0
0.20379639,0.04724121,0.10314941400000001,-13.633588,1.5496184,-32.679390000000005,0
0.22143555,0.043395996,0.08374023400000001,-11.351144999999999,2.6030533,-32.46565,0
0.21350098,0.051330565999999994,0.07543945,13.625955,2.9007633,-28.694656,0
0.1953125,0.03881836,0.072143555,14.969465,3.9312977999999994,-32.458015,0
0.18823242,0.048461914,0.076293945,3.2290077,5.908396700000001,-33.290077000000004,0
0.1828003,0.037902832000000004,0.08892822,5.2519083,-6.9465647,-39.885498,0
0.1807251,0.05609131,0.070373535,6.8778625,-8.427481,-39.44275,0
0.17236328,0.056640625,0.07983398400000001,21.908398000000002,-14.305344,-39.679390000000005,0
0.18731689999999998,0.05895996,0.07232666,32.648853,-14.267176000000001,-35.969467,0
0.20233154,0.057495117000000005,0.064575195,42.671757,-15.427481,-31.862595000000002,0
0.18554688,0.046691895,0.07476807,42.358779999999996,-17.267176,-29.816793,0
0.24151611,0.026794434,0.09155273400000001,15.664123000000002,-15.694656,-27.519083000000002,0
0.27685547,0.037109375,0.12536621,-10.763359,-31.778625,-29.908398,0
0.22229004,0.05206299,0.09210205,-25.900763,-52.961833999999996,-29.51145,0
0.18951416,0.06213379,0.080566406,-52.007633,-27.694656,-29.160304999999997,0
0.17016602,0.08117676,0.05303955,-49.610687,-13.648855,-24.877863,0
0.18176270000000003,0.08544922,0.036193848,-25.435114000000002,4.587786,-14.770992000000001,0
0.18493652,0.10046387,0.06567383,12.129771,14.854961,-3.7709922999999996,0
0.19555664,0.085876465,0.064453125,45.389313,18.801527,7.091603299999999,0
0.20831299,0.057678223,0.080566406,54.78626,18.717558,12.030535,0
0.22430419999999998,0.061645507999999995,0.095581055,43.458015,16.282442,12.267176,0
0.23852539,0.05682373,0.09136963,21.93893,6.1603055,9.541985,0
0.23828125,0.06542969,0.08380127,-0.8244275,2.389313,6.328244000000001,0
0.2300415,0.07220459,0.07507324,-8.381680000000001,-0.90839696,2.0305343000000002,0
0.23083496,0.08074951,0.06896973,-8.251908,2.5877862,-0.67175573,0
0.22052002,0.07580566400000001,0.06768799,-1.6564884999999998,3.4503817999999997,-3.6564887,0
0.21600342,0.06988525400000001,0.06597900400000001,3.946565,6.7328243,-5.6488547,0
0.23095703,0.070129395,0.06890869,6.8015265,8.564885,-5.1221375,0
0.22509766,0.06866455,0.07104492,6.763358599999999,6.5038165999999995,-8.015267,0
0.22491455,0.07196045,0.07293701,4.908396700000001,3.7099237,-6.7328243,0
0.21844482,0.06878662,0.072143555,6.1679387000000006,4.0152674,-4.091603299999999,0
0.22094727,0.07232666,0.06671142599999999,9.541985,4.2290077,1.4732825,0
0.22216797,0.078186035,0.06896973,14.389313000000001,6.862595599999999,6.2900763,0
0.21832275,0.07250976599999999,0.07128906,18.732824,8.488549,9.671756,0
0.21801758,0.07965088,0.064453125,21.12977,9.557252,10.320611,0
0.21820068,0.07580566400000001,0.06512451,24.732824,10.145039,13.587786999999999,0
0.22857666,0.07781982400000001,0.06402588,21.282442,9.320611,12.19084,0
0.21771239999999997,0.07373047,0.07495117,19.679389999999998,8.625955000000001,10.458015,0
0.21319580000000002,0.06671142599999999,0.06744385,16.656488,3.4198472,7.5725193,0
0.21972656,0.07098389,0.07397461,6.6183205,2.6564887,3.0229008,0
0.22344970000000003,0.068359375,0.07739258,2.2137403,-0.129771,0.610687,0
0.23950195,0.07299805,0.07244873,-1.0,2.076336,-5.0610685,0
0.23168945,0.071777344,0.07574463,-0.22900763,1.259542,-4.4503818,0
0.23699951,0.06994629,0.07244873,-0.6183206,3.5419848,-5.7175574000000005,0
0.22528076,0.06939697,0.0725708,-3.4580152,3.2519082999999998,-10.618319999999999,0
0.23760986,0.07421875,0.06774902,-3.9847328999999996,4.5648856,-11.946565,0
0.22155762,0.0758667,0.080566406,0.129771,3.3587787000000002,-10.648855000000001,0
0.22680664,0.06756592,0.06860351599999999,1.3587786,4.5114503,-6.8244276,0
0.22698975,0.06793213,0.08001709,2.129771,4.7022900000000005,-4.961832,0
0.22998047,0.072265625,0.07611084,0.3053435,5.885496,-1.5267175,0
0.22009277,0.07073974599999999,0.07446289,-5.0839696,2.9007633,-2.6030533,0
0.23077393,0.05987549,0.07281494,-5.396946400000001,1.3435115,-2.923664,0
0.22796631,0.07128906,0.06750488,-7.0610685,-0.5038168,-3.4580152,0
0.21685791,0.071777344,0.06939697,-5.1603055,2.5038167999999996,-2.9007633,0
0.22436523,0.07073974599999999,0.060424805,-5.89313,2.0839694,1.4122137,0
0.23059082,0.07592773400000001,0.07287598,-3.29771,1.0076336,0.9236641,0
0.23693848,0.068847656,0.07305908,-4.7328243,2.4580152,3.648855,0
0.22949219,0.07318115,0.074401855,-5.7480917,-0.8091603,2.6564887,0
0.23132324,0.070129395,0.068847656,-6.778625999999999,1.0992366000000002,4.8396945,0
0.22906494,0.08062744,0.06976318,-7.160305499999999,1.0076336,4.89313,0
0.21966553,0.06573486,0.06719971,-3.832061,0.16030534,6.931298,0
0.22460938,0.070251465,0.07391357400000001,-4.7328243,2.1908397999999996,6.335878,0
0.22576904,0.07714844,0.068359375,-6.114504,1.5419847,5.89313,0
0.23156738,0.07855224599999999,0.07061767599999999,-8.519084,-1.4045801000000002,4.0229006,0
0.22930908,0.083984375,0.06335449,-8.572519,-2.0839694,3.40458,0
0.23944092,0.078308105,0.06579589999999999,-3.1450381000000003,-3.4885497,4.396946400000001,0
0.22637939999999998,0.07702637,0.06311035,-2.129771,-1.3129771000000001,3.8625953,0
0.23303223,0.0758667,0.06628418,-2.5267177000000003,-1.2748091000000001,1.7480916000000002,0
0.22387695,0.07739258,0.09222412,-0.64122134,-1.7709924,-2.465649,0
0.23425293,0.07867432,0.07543945,-0.23664123,-2.389313,-2.2519082999999998,0
0.23120117,0.07739258,0.070373535,-0.83206105,-3.2366412,-6.587786,0
0.21923828,0.07281494,0.06994629,-1.3206106000000002,-0.21374045,-6.2137402999999996,0
0.21612549,0.07312012,0.08660889,0.6870229,-2.0610688,-6.6793895,0
0.23193360000000002,0.08355713,0.06683349599999999,0.19847329,-1.6030535,-7.4274807,0
0.21917725,0.07000732400000001,0.08557129,-0.38931298,0.7099236999999999,-6.2519083,0
0.22833252,0.07250976599999999,0.08953857400000001,0.86259544,-0.8015267,-8.076336,0
0.22039795,0.07043457,0.08807373,1.2748091000000001,0.96183205,-9.412213000000001,0
0.21765137,0.06878662,0.087890625,1.3664121999999999,3.206107,-7.480916000000001,0
0.22601318,0.07281494,0.08361816400000001,4.2290077,2.0610688,-9.435115,0
0.22698975,0.062194824,0.078063965,4.2442746,4.328244000000001,-10.076336,0
0.22338867,0.06274414,0.08380127,5.259542,4.519083999999999,-7.4198475,0
0.22143555,0.06628418,0.087768555,4.625954,4.7022900000000005,-9.977099,0
0.22589111,0.06439209,0.07537842,3.0687022,4.1679387000000006,-9.557252,0
0.22155762,0.06549072,0.07733154,4.221374,1.7938931,-6.3129773,0
0.23315429999999995,0.06341553,0.078186035,2.1526718,2.557252,-6.839694500000001,0
0.22143555,0.06390381,0.09008789,3.8931297999999996,3.5419848,-5.3206105,0
0.22875977,0.06854248,0.07910156,0.41984734,1.9389313000000001,-6.076336,0
0.22497559,0.06988525400000001,0.07891846,1.8244275,0.10687023,-4.6412214999999994,0
0.23052979,0.06982422,0.08087158,1.7328244,3.5419848,-4.6793895,0
0.22442627,0.06695557,0.07708739999999999,-1.2442749,1.3282443000000002,-2.0,0
0.22515869,0.06860351599999999,0.07147217,0.79389316,-0.030534351,-1.1068702,0
0.22430419999999998,0.075683594,0.07598877,-1.7251908999999999,0.41221374,0.22900763,0
0.22381592,0.06976318,0.07708739999999999,0.8015267,0.091603056,-1.5419847,0
0.23175049,0.0715332,0.08190918,-0.3053435,-1.3358778999999998,-0.83206105,0
0.21832275,0.07189941400000001,0.07519531,-1.5954198999999998,2.0305343000000002,1.0076336,0
0.22363281,0.07220459,0.07611084,0.17557251,0.8091603,-1.6030535,0
0.21209717,0.07183838,0.06860351599999999,-0.35114503,0.5114504,-3.2824428,0
0.21697998,0.07043457,0.07489014,0.16030534,3.2824428,-3.8091602,0
0.22766113,0.068847656,0.076049805,-0.9541985000000001,0.091603056,-1.5114504,0
0.22473145,0.07293701,0.07977295,0.6946565,1.4351145,0.77099234,0
0.23425293,0.07409668,0.08050537,-0.36641222,0.32061067,-0.90076333,0
0.23339844,0.07647705,0.07623291,1.1526718,1.9694656000000004,-1.2290076,0
0.22149658,0.07678223,0.07867432,3.2290077,2.3053436,-1.259542,0
0.22949219,0.06927489999999999,0.07635498,1.3358778999999998,0.7480916,-4.1603055,0
0.23052979,0.06311035,0.07299805,0.7251908,2.519084,-5.4656487,0
0.22259521,0.070129395,0.07373047,0.70229006,1.0305344,-4.5114503,0
0.23071289,0.06671142599999999,0.06555176,2.2900763,-0.14503817,-4.89313,0
0.22009277,0.06701660000000001,0.07324219,2.3664122000000005,1.038168,-2.7328243,0
0.23919678,0.06854248,0.064453125,1.9312977,0.10687023,-2.0152671000000004,0
0.23150635,0.07434082,0.062072754,1.5114504,1.0229008,-0.259542,0
0.22698975,0.06726074,0.07379150400000001,2.8015267999999995,0.48091602,-0.061068702,0
0.21618652,0.07489014,0.06774902,1.8015267,1.3435115,-1.9694656000000004,0
0.23095703,0.06640625,0.07556152,4.0076336999999995,-0.022900764,0.091603056,0
0.23248291,0.059448242000000005,0.06573486,2.8473282,0.83206105,-1.3129771000000001,0
0.22076416,0.07550049,0.06677246,1.0763359,1.8625953999999998,-1.5114504,0
0.22131348,0.07330322,0.06799316400000001,2.4351146,-0.19847329,-0.9541985000000001,0
0.22357178,0.068847656,0.091308594,-1.0839695,-0.8091603,-9.007633,0
0.22021484,0.06280517599999999,0.064941406,-0.97709924,-0.9160305000000001,-4.3129773,0
0.24267578,0.07324219,0.07141113,-1.4961832,-0.5648854999999999,-5.0,0
0.22418213,0.078125,0.07733154,-2.389313,0.77099234,-2.480916,0
0.23223877,0.064453125,0.07293701,-1.5877863,1.3129771000000001,-1.4045801000000002,0
0.23809814,0.06298828,0.07476807,-1.5954198999999998,3.8473281999999998,-1.389313,0
0.23303223,0.06927489999999999,0.06738281,2.9770992,3.70229,-0.19847329,0
0.23297119,0.061645507999999995,0.06506348,3.3740457999999998,5.2519083,4.4503818,0
0.22137451,0.0625,0.08306885,2.8473282,4.671755999999999,6.908396700000001,0
0.23675537,0.068481445,0.079589844,2.2137403,2.6793892,8.0,0
0.22167969,0.06793213,0.08258057,1.8931297999999999,4.4961834000000005,8.961832000000001,0
0.22552489999999997,0.07263183599999999,0.08276367,3.183206,2.3816792999999996,4.8320612999999994,0
0.23480225,0.07189941400000001,0.07598877,-0.19847329,0.99236643,-1.1374046,0
0.22686768,0.07092285,0.08215332,2.4961832000000004,0.129771,-3.1374047000000003,0
0.22827148,0.07635498,0.08569336,5.0839696,0.030534351,-4.908396700000001,0
0.22027588,0.06671142599999999,0.0803833,4.1984735,-2.4045799999999997,-11.381680000000001,0
0.21807861,0.06542969,0.080078125,1.2290076,-2.5496182000000003,-13.931297,0
0.23046875,0.0715332,0.08258057,-0.14503817,-1.4656489,-17.358778,0
0.23138428,0.06768799,0.080078125,3.0229008,-3.167939,-17.48855,0
0.22668457,0.06024169999999999,0.08288574,5.8320612999999994,-2.3969467,-16.458015,0
0.21990967,0.054138184000000006,0.08337402,4.3129773,-0.5954198,-15.458015,0
0.22509766,0.05694580000000001,0.08825683599999999,3.6106870000000004,-1.2137405,-12.198473,0
0.23327637,0.062072754,0.09020996,4.3053436,1.0,-12.122137,0
0.23291016,0.056762695,0.08435058599999999,2.312977,-0.8091603,-12.2595415,0
0.23040771,0.057617188,0.08703613,0.099236645,-0.8167939000000001,-13.7786255,0
0.22637939999999998,0.058776855,0.08172607400000001,-1.6183206,-0.8396947,-11.557252,0
0.22338867,0.06652832,0.07183838,-4.236641400000001,0.97709924,-11.343511999999999,0
0.22058105,0.05895996,0.07550049,-1.7709924,0.40458015,-6.961832000000001,0
0.22460938,0.064575195,0.08355713,-2.0839694,1.4351145,-5.9007635,0
0.21362305,0.05432129,0.07788086,-3.7328242999999994,1.2519083999999998,-0.36641222,0
0.24804688,0.06225586,0.07446289,-4.961832,0.86259544,4.0610685,0
0.23242188,0.06488037,0.07293701,-3.7328242999999994,3.0687022,6.0458016,0
0.24084473,0.074035645,0.06738281,-2.3435113,1.610687,10.687023,0
0.23791504,0.06597900400000001,0.07397461,-3.1603053,0.18320611,13.732823999999999,0
0.22369385,0.07647705,0.07196045,-5.0610685,-1.8702290000000001,10.534351,0
0.21234131,0.062316895,0.06842041,-7.374046000000001,-3.7709922999999996,7.3206105,0
0.21911621,0.081970215,0.06512451,-7.259542,-2.7175572,4.5725193,0
0.22534179999999995,0.07366943,0.072753906,-2.038168,-0.9389313,4.6183205,0
0.222229,0.07183838,0.07165527,3.465649,-0.66412216,5.1679387000000006,0
0.23132324,0.06854248,0.06872558599999999,1.5801526000000001,-2.3511450000000003,3.3435113,0
0.23406982,0.07464599599999999,0.07220459,-0.6946565,-1.4122137,0.89312977,0
0.23913574,0.07519531,0.07580566400000001,-2.0229008,-2.5267177000000003,-2.870229,0
0.23876953,0.07598877,0.06927489999999999,2.0610688,1.5954198999999998,-5.961832,0
0.23425293,0.07092285,0.074279785,4.7251905999999995,0.9694656999999999,-8.641221,0
0.23571777,0.07269287,0.06616211,5.396946400000001,2.2671757,-11.961832000000001,0
0.23034668,0.066345215,0.06414795,9.19084,0.8702290000000001,-12.854961,0
0.22119139999999998,0.06951904,0.055480957000000004,17.190839999999998,-0.8091603,-9.038167999999999,0
0.22094727,0.06799316400000001,0.05444336,16.984734,-1.5419847,-7.961832000000001,0
0.22259521,0.059509277,0.06921387,5.8244276,-3.183206,-10.763359,0
0.24475098,0.06707764,0.072387695,-6.923664,-5.0458016,-6.0458016,0
0.2576294,0.070129395,0.06964111,0.5114504,-8.641221,-2.7404580000000003,0
0.23608398,0.07128906,0.072143555,11.641221,-2.7328243,7.5114503,0
0.21929932,0.05822754,0.07489014,8.526717,1.4274809,9.435115,0
0.19812012,0.06292724599999999,0.06286621,8.396947,4.931298,10.664123,0
0.21051025,0.07281494,0.064453125,13.312976999999998,6.4885497,14.145039,0
0.21759033,0.06378174,0.06408691400000001,15.358779,5.961832,19.198473,0
0.22192383,0.06549072,0.06408691400000001,11.832061,8.129771,22.419847,0
0.24615479,0.07421875,0.061340332000000004,1.038168,7.221374000000001,22.740458,0
0.24316406,0.07745361,0.06872558599999999,1.1450381,6.900763499999999,21.702289999999998,0
0.23376465,0.074035645,0.068359375,3.7557251000000003,7.931298,13.335876999999998,0
0.24133301,0.08215332,0.06738281,-1.0076336,5.633588,1.4045801000000002,0
0.24035645,0.076049805,0.06072998,2.9770992,6.412214,-9.755725,0
0.22479248,0.07763672,0.06542969,3.908397,4.946564700000001,-19.053434,0
0.23834229,0.06469726599999999,0.055664062,9.19084,3.6106870000000004,-23.0,0
0.21929932,0.06451416,0.06750488,9.580152499999999,2.5877862,-22.610687,0
0.22906494,0.062438965,0.0758667,6.221374,-0.061068702,-19.89313,0
0.22906494,0.06304932,0.07702637,5.1603055,0.20610687,-15.854961,0
0.21789551,0.057983400000000004,0.078308105,2.7099237,-0.84732825,-13.442748000000002,0
0.22937012,0.06481933599999999,0.08831787,-1.8854961,-2.4580152,-10.091603,0
0.23138428,0.06890869,0.07861328,1.5038168,-0.6259541999999999,-7.183206,0
0.23828125,0.07470703,0.061462402,14.770992000000001,5.5419846,0.33587787,0
0.23260498,0.07189941400000001,0.06524658,28.053434000000003,12.0,3.9847328999999996,0
0.23010254,0.06311035,0.06933594,29.099237,11.0992365,5.396946400000001,0
0.23144531,0.061950684000000006,0.07922363,18.465649,4.2061067,-4.0305343,0
0.23797607,0.06225586,0.076293945,3.0229008,-3.8549618999999997,-15.068703,0
0.24060059,0.057373047,0.07550049,-8.038167999999999,-11.366412,-24.229008,0
0.24182129,0.06011963,0.07940674,-12.152672,-11.129771,-29.23664,0
0.23492432,0.05895996,0.08215332,-12.045800999999999,-9.870229,-30.213741,0
0.22076416,0.06713867,0.070129395,-5.412214,-5.236641400000001,-24.786259,0
0.22180176,0.06072998,0.07122803,7.900763499999999,-1.3664121999999999,-15.0992365,0
0.21740723,0.05810547,0.084472656,8.541985,1.8015267,-8.839694999999999,0
0.21746826,0.053771973,0.07525635,7.2290077,-1.3435115,-0.86259544,0
0.23144531,0.05694580000000001,0.080078125,-2.5954200000000003,2.1755726,6.221374,0
0.23620605,0.07202148400000001,0.06768799,-0.97709924,0.43511450000000007,10.030535,0
0.22033691,0.06390381,0.06628418,-0.46564886,4.0839696000000005,14.114504,0
0.22509766,0.06292724599999999,0.07391357400000001,-1.8320610000000002,5.9541984,13.21374,0
0.24499512,0.06616211,0.068237305,0.6870229,3.8244274,8.564885,0
0.22381592,0.068359375,0.07977295,1.9541985,1.7480916000000002,3.9389312000000007,0
0.23797607,0.055480957000000004,0.074157715,-3.7099237,0.29007635,-1.8778626,0
0.22937012,0.0625,0.07659912,-12.129771,-2.167939,-7.3511453,0
0.23297119,0.06616211,0.07495117,-13.129771,-3.6030532999999996,-8.931297,0
0.22393799,0.0715332,0.06726074,-10.167939,-1.2824427,-2.908397,0
0.22021484,0.06707764,0.074279785,-6.7557254,1.8473282,1.6717557,0
0.22668457,0.052856445,0.07171631,-8.793892999999999,-1.480916,6.9160304,0
0.22497559,0.06536865,0.07391357400000001,-9.282442999999999,0.129771,7.4198475,0
0.21551514,0.0703125,0.07879639,-12.022901,1.3282443000000002,10.343511999999999,0
0.23156738,0.072387695,0.06768799,-12.480916,1.8702290000000001,7.4885497,0
0.22637939999999998,0.079956055,0.07531738,-9.847328,2.221374,4.053435299999999,0
0.23962402,0.08062744,0.08172607400000001,-6.8244276,3.59542,2.3969467,0
0.22534179999999995,0.07678223,0.08117676,-2.3664122000000005,4.59542,2.038168,0
0.23101807,0.08123779,0.06994629,2.129771,5.8244276,-0.22137405,0
0.22088623,0.076171875,0.06683349599999999,6.4351144,10.21374,-1.6870228999999999,0
0.21759033,0.068481445,0.070495605,5.343511599999999,11.885496,-5.923664,0
0.23376465,0.0725708,0.06506348,0.20610687,8.664123,-9.076336,0
0.25341797,0.07672119,0.061706542999999996,-3.0152671000000004,2.778626,-10.076336,0
0.25701904,0.07452392599999999,0.06298828,-4.6412214999999994,-2.1755726,-12.19084,0
0.26171875,0.06402588,0.07110596,-8.801527,-5.343511599999999,-15.236641,0
0.25750732,0.05505371,0.07897949,-14.351145,-11.381680000000001,-15.954199,0
0.23980713,0.06756592,0.06750488,-16.847328,-12.992367,-18.961832,0
0.21044922,0.072387695,0.055725098,-8.206107000000001,-15.274809,-19.824427,0
0.19067383,0.068359375,0.053710938,-0.8549618,-8.80916,-14.0992365,0
0.16088867,0.060302734000000004,0.047180176,5.7251905999999995,-3.465649,-1.9236640999999999,0
0.18359375,0.06665039,0.05065918,-3.6793892,5.6412214999999994,6.1984735,0
0.19482422,0.06225586,0.08190918,-5.328244000000001,4.664122,12.755725,0
0.24151611,0.07342529,0.07507324,-14.259541500000001,4.183206,12.404580000000001,0
0.27233887,0.06542969,0.09539795,-24.045801,-2.7328243,0.99236643,0
0.26483154,0.06317139,0.09234619,-38.53435,-8.961832000000001,-15.511451000000001,0
0.27099609999999996,0.08233642599999999,0.076293945,-37.305344,0.18320611,-27.824427000000004,0
0.24914551,0.0836792,0.08081055,-8.328244,8.2213745,-27.450382,0
0.23919678,0.07385254,0.07104492,21.786259,12.709924,-22.778625,0
0.22851562,0.059814453,0.06964111,31.625953999999997,12.343511999999999,-19.969465,0
0.22717285,0.052368164,0.06927489999999999,16.732824,7.6106872999999995,-14.282442999999999,0
0.22814941,0.05712890599999999,0.059509277,8.045800999999999,-0.36641222,-10.351144999999999,0
0.21752929999999995,0.061706542999999996,0.06420898400000001,-0.84732825,-7.137404400000001,-3.5725190000000002,0
0.20770264,0.07067871,0.055664062,-2.3511450000000003,-9.419847500000001,3.183206,0
0.20532227,0.06414795,0.06842041,-3.3282442000000003,-6.603053599999999,13.114504,0
0.21148682,0.06744385,0.07330322,-6.4351144,-11.984733,16.809160000000002,0
0.23303223,0.07293701,0.07098389,-9.274809,-15.419847500000001,18.908398000000002,0
0.24841309,0.07360839999999999,0.083862305,-10.526717,-14.763359,16.641222,0
0.24475098,0.06298828,0.11230469,-22.709923,-21.038168,-0.7633588000000001,0
0.25653076,0.06781006,0.10284424,-42.267174,-22.10687,-17.748089999999998,0
0.25665283,0.07928467,0.09918213,-43.46565,-11.862596,-29.099237,0
0.25012207,0.088012695,0.08648682,-31.335878000000005,-1.5496184,-28.656488,0
0.23461914,0.07623291,0.08459473,-14.351145,3.6259542000000002,-26.068703,0
0.22302246,0.0635376,0.07299805,-10.21374,3.2748091,-26.183207,0
0.22436523,0.06280517599999999,0.06024169999999999,-24.809160000000002,5.145038,-26.656488,0
0.21862793,0.06842041,0.051940917999999996,-29.152671999999995,-0.015267176,-24.473282,0
0.23034668,0.07592773400000001,0.062438965,-35.274809999999995,-3.2671757,-21.664122,0
0.23223877,0.07202148400000001,0.06726074,-31.832062,-6.8244276,-15.641221,0
0.23742676,0.088378906,0.0715332,-35.870228000000004,-8.389313000000001,-10.167939,0
0.23699951,0.08813476599999999,0.06701660000000001,-19.854961,-10.435115,-3.4885497,0
0.23217773,0.08880615,0.06506348,-18.236639999999998,-8.374044999999999,0.67175573,0
0.22399902,0.08782959,0.07318115,-12.816792999999999,-7.3129773,-0.32824427,0
0.22467041,0.09991455,0.07159424,-12.274809,-6.9160304,0.03816794,0
0.22296143,0.09295654,0.07141113,-7.8320612999999994,-6.053435299999999,-0.8015267,0
0.22387695,0.08544922,0.07592773400000001,-7.0610685,-5.7557254,-1.4198473999999999,0
0.23590088,0.08312988,0.08557129,-9.732824,-2.572519,-5.259542,0
0.22760010000000003,0.08618164,0.08129883,-7.7862597000000004,-2.2595419999999997,-3.3435113,0
0.24060059,0.09484863,0.07073974599999999,0.34351146,-0.022900764,-1.5267175,0
0.24456787,0.080200195,0.07312012,4.2137402999999996,2.923664,2.2595419999999997,0
0.2230835,0.08392334,0.07159424,4.3587785000000006,3.221374,0.49618322,0
0.23675537,0.09265137,0.07196045,1.1984733,3.6412212999999998,-2.167939,0
0.22705078,0.07824707,0.06689453,-0.6870229,1.7404580000000003,-3.4503817999999997,0
0.22052002,0.08483887,0.06915283,-5.145038,-0.8167939000000001,-9.511451,0
0.22747803,0.083862305,0.07434082,-3.9541983999999997,0.22900763,-9.412213000000001,0
0.24395752,0.082092285,0.0725708,-1.610687,0.45801526,-8.366412,0
0.23693848,0.09082031,0.06549072,-0.6488550000000001,1.8015267,-5.984732599999999,0
0.22161865,0.08111572,0.06774902,3.832061,4.3511453,0.41984734,0
0.23358154,0.07910156,0.07537842,3.6030532999999996,6.3511453,3.5419848,0
0.22924805,0.09625244,0.06854248,3.8015267999999995,7.328244000000001,7.099236500000001,0
0.23406982,0.074035645,0.06945801,5.6793895,6.778625999999999,8.748092,0
0.24505615,0.07727051,0.07501221,1.0839695,9.137404,5.816794,0
0.22814941,0.08319092,0.07019043,0.9389313,7.7709923,5.816794,0
0.23699951,0.079589844,0.07110596,10.442748,6.1374044,9.442748,0
0.24645996,0.0703125,0.07220459,10.328244,7.80916,10.343511999999999,0
0.24444580000000002,0.07507324,0.07318115,6.5725193,6.969465700000001,9.793892999999999,0
0.23809814,0.09606933599999999,0.06097412,3.4885497,10.435115,9.145039,0
0.22705078,0.08013916,0.070373535,21.343512,5.664122,11.648855000000001,0
0.23614502,0.08245849599999999,0.06347656,14.946565,7.6183205,9.656488000000001,0
0.23724365,0.091674805,0.061706542999999996,12.977099,7.1984735,8.519084,0
0.23406982,0.08172607400000001,0.06652832,11.282442999999999,3.9541983999999997,5.2137402999999996,0
0.23040771,0.08520508,0.08062744,15.19084,5.854962,4.1755724,0
0.23309326,0.07006836,0.07788086,12.015267,4.6793895,2.2137403,0
0.24255371,0.07580566400000001,0.09033203,16.38168,7.068702,1.1908396,0
0.2364502,0.07855224599999999,0.087890625,20.549618,7.1755724,1.6564884999999998,0
0.23211669999999998,0.06829834,0.0881958,17.419847,7.931298,2.2519082999999998,0
0.23321533,0.06921387,0.08496094,14.19084,6.4503818,-0.38931298,0
0.23480225,0.07641601599999999,0.08288574,18.312977,7.236641400000001,-0.52671754,0
0.23059082,0.068481445,0.08502197,24.328245000000003,6.1297708,0.20610687,0
0.23284912,0.06579589999999999,0.085876465,22.465649,8.374044999999999,-1.389313,0
0.23742676,0.06567383,0.088012695,16.465649,7.2290077,-0.35877863,0
0.22827148,0.06945801,0.09515381,15.931297,5.7557254,-1.1679389999999998,0
0.23547363,0.07080078,0.087402344,14.068703,2.2671757,-4.190840000000001,0
0.22497559,0.064941406,0.08880615,10.274809,6.0229006,-3.832061,0
0.23187256,0.06378174,0.08923339999999999,6.412214,4.664122,-4.053435299999999,0
0.23358154,0.060302734000000004,0.09027099599999999,6.152672,4.8244276,-9.587786999999999,0
0.24255371,0.06762695,0.09240723,6.4503818,5.1984735,-7.7328243,0
0.24029541,0.06060791,0.09027099599999999,8.053435,5.0229006,-7.763358599999999,0
0.23376465,0.066467285,0.09045410000000001,5.6793895,5.7175574000000005,-5.5343513,0
0.23486328,0.066467285,0.08666992,6.442748,7.2442746,-3.7099237,0
0.23937988,0.06610107400000001,0.07855224599999999,7.519083999999999,6.2900763,-1.7786259999999998,0
0.23687744,0.07452392599999999,0.091918945,7.0152674,5.3511453,-0.96183205,0
0.24072266,0.06750488,0.08032226599999999,7.8320612999999994,6.6183205,-0.84732825,0
0.23187256,0.07189941400000001,0.08032226599999999,8.78626,5.931298,-0.10687023,0
0.23583984,0.06811523400000001,0.08001709,7.5114503,4.7328243,1.038168,0
0.23394775,0.061706542999999996,0.07775879,9.2213745,2.1374047000000003,-3.40458,0
0.23547363,0.06237793,0.080566406,8.106871,0.2519084,-3.2519082999999998,0
0.22833252,0.067871094,0.074035645,5.6183205,-0.57251906,-3.7099237,0
0.22778320000000005,0.07379150400000001,0.074035645,4.2824425999999995,-3.5190839999999994,-3.1221373,0
0.22601318,0.070495605,0.084472656,2.816794,-7.374046000000001,-6.671755999999999,0
0.22589111,0.06420898400000001,0.08270264,-0.49618322,-5.152672,-8.427481,0
0.23260498,0.06518555,0.08544922,-3.1374047000000003,-8.328244,-8.320611,0
0.22796631,0.061401367000000005,0.08984375,-2.793893,-8.236641,-10.160305000000001,0
0.23315429999999995,0.061523438,0.08569336,-4.190840000000001,-5.3893127,-11.969465,0
0.22698975,0.061523438,0.07977295,-4.9389315,-3.8396947,-11.725191,0
0.23114014,0.06298828,0.08721924,-4.236641400000001,-1.7480916000000002,-10.19084,0
0.23883057,0.06280517599999999,0.08245849599999999,-3.2595419999999997,-1.7557251,-6.740458,0
0.22485352,0.06420898400000001,0.07641601599999999,-5.603053599999999,0.03816794,-7.030534299999999,0
0.23449707,0.06542969,0.08355713,-5.0610685,1.519084,-6.5038165999999995,0
0.23114014,0.06732178,0.08044433599999999,-6.1984735,0.22137405,-2.5267177000000003,0
0.22027588,0.07299805,0.08081055,-6.335878,0.5954198,-2.4351146,0
0.22570801,0.072143555,0.06744385,-8.618319999999999,0.030534351,-1.5954198999999998,0
0.22875977,0.07507324,0.07897949,-10.343511999999999,1.3969465,-4.854962,0
0.22442627,0.06384277,0.081970215,-10.511451,0.9694656999999999,-2.5877862,0
0.22351074,0.078063965,0.06896973,-8.503817,3.0152671000000004,0.610687,0
0.22711182,0.07141113,0.09173584,-8.061069,1.0305344,-0.122137405,0
0.24829102,0.071777344,0.06347656,-9.251908,1.9083970000000001,2.4122138,0
0.23693848,0.06530762,0.06903076,-8.183207000000001,1.8702290000000001,3.3206108,0
0.23077393,0.07720947,0.06420898400000001,-8.366412,1.0,3.5648854,0
0.22741699,0.07116699,0.07965088,-9.145039,-0.5801527,4.480916000000001,0
0.23742676,0.07080078,0.07641601599999999,-9.282442999999999,-0.70229006,1.8473282,0
0.22900389999999998,0.07781982400000001,0.07336426,-8.885496,-1.7633588,-0.28244275,0
0.22875977,0.07342529,0.07458496,-7.3511453,-3.4961832000000004,-0.06870229,0
0.21911621,0.07727051,0.06939697,-4.7862597000000004,-0.60305345,0.6183206,0
0.22766113,0.07684326,0.07446289,-6.366412,-1.5648855,0.57251906,0
0.22039795,0.074401855,0.08148193,-7.396946400000001,-3.7328242999999994,-3.0839694,0
0.22436523,0.07519531,0.09289551,-3.70229,-3.2824428,-1.4732825,0
0.22241211,0.07104492,0.08825683599999999,-3.4732822999999997,-0.97709924,-1.6335878000000001,0
0.22967529999999997,0.07232666,0.09295654,-1.4045801000000002,-1.0458015,-4.4961834000000005,0
0.22778320000000005,0.06860351599999999,0.09265137,-3.9923663,-0.6793893,-5.984732599999999,0
0.22979736,0.06994629,0.08618164,-2.8854961,-2.2290077,-5.8015265,0
0.2220459,0.07409668,0.08520508,-2.3206108,-1.2442749,-7.7175574000000005,0
0.22290039,0.061706542999999996,0.08496094,-1.9160305,1.4656489,-8.114504,0
0.22485352,0.0647583,0.085754395,-1.5572518999999998,-0.90076333,-6.671755999999999,0
0.22430419999999998,0.07165527,0.09106445,-1.6793894,-0.38931298,-4.8625956,0
0.22210693,0.06707764,0.07904053,0.45801526,0.061068702,-5.473282299999999,0
0.22418213,0.06427002,0.09057617,-0.29007635,1.6335878000000001,-6.4198474999999995,0
0.22753906,0.06274414,0.09271239999999999,0.39694658,2.1145039,-6.0076336999999995,0
0.22729492,0.07147217,0.08648682,1.1145038999999999,1.2290076,-6.4656487,0
0.22607422,0.07446289,0.08129883,0.24427481,2.3816792999999996,-6.0610685,0
0.22839355,0.06665039,0.08380127,-0.16030534,3.1984732000000005,-7.6106872999999995,0
0.22857666,0.066467285,0.07672119,0.38167940000000006,3.3893129999999996,-4.656488400000001,0
0.22271729,0.06427002,0.08746338,0.54198474,2.1603053,-5.5496182,0
0.22857666,0.06488037,0.07556152,-0.022900764,2.312977,-3.4198472,0
0.22827148,0.06536865,0.07824707,0.6870229,1.7557251,-3.3358779999999997,0
0.23583984,0.06689453,0.078308105,1.2137405,3.1068702,-3.0229008,0
0.22924805,0.06921387,0.08264160000000001,-0.17557251,2.6412212999999998,-0.9160305000000001,0
0.23284912,0.0690918,0.08135986,1.70229,1.1450381,1.351145,0
0.22955322,0.066589355,0.07580566400000001,1.9389313000000001,1.4503816,0.4274809,0
0.22424316,0.06481933599999999,0.09240723,0.78625953,2.7099237,-0.65648854,0
0.23565674,0.06958008,0.074401855,2.7557251,-0.114503816,0.6335878,0
0.22747803,0.07287598,0.081970215,1.2671756,0.9160305000000001,0.5496183000000001,0
0.21783447,0.06713867,0.07879639,0.9465648999999999,1.4503816,-0.32061067,0
0.22271729,0.06713867,0.07910156,2.091603,2.8396947,-0.57251906,0
0.23114014,0.06365967,0.07250976599999999,0.015267176,1.1603054,0.19847329,0
0.22583008,0.072143555,0.07641601599999999,2.3816792999999996,-0.015267176,-2.0229008,0
0.23181152,0.07000732400000001,0.08416748,1.8473282,0.77862597,-1.7251908999999999,0
0.22119139999999998,0.06896973,0.081970215,1.6030535,1.9465648999999998,-2.442748,0
0.22857666,0.07128906,0.07092285,0.9312976999999999,1.2061069,-3.6106870000000004,0
0.23315429999999995,0.07501221,0.07598877,3.8931297999999996,1.1755725000000001,-1.0763359,0
0.22717285,0.06872558599999999,0.07366943,1.9923664,2.832061,-2.4732822999999997,0
0.23956299,0.07263183599999999,0.072265625,0.6335878,1.5648855,-4.2977099999999995,0
0.22167969,0.075683594,0.07501221,2.0458016,1.3206106000000002,-3.351145,0
0.22033691,0.06652832,0.07141113,3.2671757,0.9236641,-4.236641400000001,0
0.23278809,0.060424805,0.0769043,1.0,2.206107,-3.9923663,0
0.22949219,0.074279785,0.076660156,0.8091603,2.1145039,-0.8549618,0
0.23223877,0.060180664,0.07647705,3.0076337000000004,2.778626,-2.0458016,0
0.23236084,0.07110596,0.08160400400000001,1.2366412,1.4045801000000002,-3.5877862,0
0.22485352,0.07019043,0.07891846,-0.5114504,1.0229008,-3.946565,0
0.22845459,0.07165527,0.07043457,0.9694656999999999,1.0076336,-3.0839694,0
0.23486328,0.06512451,0.07135010000000001,0.38931298,-0.18320611,-2.687023,0
0.23638916,0.07086182,0.07104492,0.129771,-0.29007635,-3.3053436,0
0.23712158,0.070129395,0.074035645,0.6183206,1.7404580000000003,-2.4732822999999997,0
0.22253418,0.066345215,0.06549072,-0.2977099,-0.19083970000000003,-3.3435113,0
0.23382568,0.07446289,0.07128906,-0.6793893,0.5954198,-2.8931298,0
0.23846436,0.06726074,0.08435058599999999,-1.9007633999999998,0.6259541999999999,-3.5114503,0
0.21704102,0.07550049,0.07495117,-1.6412214,-0.31297709999999995,-2.6946564,0
0.23010254,0.06109619,0.07244873,-0.3740458,-0.03816794,-2.793893,0
0.22576904,0.07000732400000001,0.07647705,1.1068702,0.061068702,-3.3816792999999996,0
0.22949219,0.06488037,0.08618164,0.6870229,1.0152671,-1.9312977,0
0.22052002,0.06225586,0.09216308599999999,0.43511450000000007,1.5572518999999998,-2.3816792999999996,0
0.22668457,0.06536865,0.09234619,0.38167940000000006,0.20610687,-4.816794,0
0.22967529999999997,0.07098389,0.08624267599999999,-0.114503816,1.5725191,-3.0305343,0
0.22387695,0.06585693,0.08489989999999999,1.1221374,1.4885496,-0.97709924,0
0.22613525,0.06463623,0.08984375,1.7862595000000001,2.5419848,-4.068702,0
0.22387695,0.0703125,0.08880615,0.22900763,1.8320610000000002,-1.0152671,0
0.23419189999999998,0.06518555,0.07598877,0.23664123,0.6259541999999999,-4.4351144,0
0.22558594,0.06964111,0.075683594,0.8244275,0.38167940000000006,-1.8091604,0
0.21392822,0.059143065999999994,0.08306885,-0.45801526,0.9236641,-2.9694657,0
0.22180176,0.06225586,0.0881958,1.1755725000000001,1.6793894,-3.29771,0
0.22442627,0.07421875,0.08355713,0.24427481,-0.4427481,-3.1984732000000005,0
0.22711182,0.068481445,0.08709717,0.32824427,1.6641221000000002,-0.54198474,0
0.22833252,0.06781006,0.081848145,-0.19083970000000003,0.053435113,-2.0076337,0
0.22827148,0.068847656,0.0859375,-0.65648854,0.5114504,-3.648855,0
0.23352051,0.068237305,0.0836792,1.0305344,0.54198474,-3.793893,0
0.22686768,0.06878662,0.08886719,0.022900764,-0.2977099,-4.4656487,0
0.22619629,0.06652832,0.08215332,-0.36641222,0.9236641,-1.70229,0
0.22821045,0.07092285,0.08648682,1.221374,2.7480917000000002,-1.3206106000000002,0
0.22406006,0.06982422,0.08843994,2.1984732000000005,0.2977099,-1.8091604,0
0.22637939999999998,0.06671142599999999,0.09210205,1.1374046,-0.129771,-2.4045799999999997,0
0.23266602,0.062194824,0.0871582,2.427481,0.32824427,-4.763358599999999,0
