Acc_X,Acc_Y,Acc_Z,Gyr_X,Gyr_Y,Gyr_Z,Label
0.22528076,0.06738281,0.06573486,-0.061068702,0.259542,-2.9770992,12
0.22247314,0.06060791,0.07104492,-0.16030534,2.0,-2.7709923,12
0.23022461,0.06744385,0.07580566400000001,-1.3664121999999999,-0.10687023,-3.6106870000000004,12
0.23455810000000002,0.06536865,0.07745361,-1.7099236,1.038168,-2.389313,12
0.22338867,0.06652832,0.08624267599999999,-0.2519084,0.78625953,-4.2061067,12
0.24761963,0.061401367000000005,0.07104492,-0.053435113,2.6564887,-2.7557251,12
0.22363281,0.06469726599999999,0.08502197,-0.7099236999999999,1.2977100000000001,-6.3587785000000006,12
0.22351074,0.06854248,0.080078125,0.5648854999999999,1.1450381,-1.961832,12
0.22796631,0.06585693,0.08032226599999999,0.24427481,0.70229006,-2.778626,12
0.22381592,0.07183838,0.08441162,-0.5038168,2.5114503,-6.0992365,12
0.23040771,0.06726074,0.08392334,1.2519083999999998,1.1908396,-2.5877862,12
0.22894287,0.06628418,0.08105469,2.038168,1.2824427,-4.2671757,12
0.22381592,0.064941406,0.07885742,0.31297709999999995,1.7633588,-3.5419848,12
0.22875977,0.06536865,0.08856201,1.4198473999999999,1.8625953999999998,-5.3129773,12
0.22583008,0.06732178,0.078186035,1.4885496,1.0076336,-6.7251906,12
0.22839355,0.06469726599999999,0.08190918,1.5114504,-1.1526718,-8.541985,12
0.22668457,0.062194824,0.08520508,-2.8625952999999997,0.8244275,-9.129771,12
0.22882080000000002,0.06524658,0.08288574,-1.0458015,2.3282442000000003,-6.625953999999999,12
0.22698975,0.06427002,0.08300781,4.5038165999999995,3.6106870000000004,-5.0610685,12
0.21813965,0.061767578,0.08361816400000001,1.3358778999999998,6.664122,-3.8473281999999998,12
0.23596191,0.06378174,0.08111572,1.1908396,5.4656487,-5.4198474999999995,12
0.22808838,0.061401367000000005,0.07897949,5.7862597000000004,6.3587785000000006,-3.4274809999999998,12
0.22723389,0.059814453,0.07452392599999999,9.458015,7.557252,-1.5419847,12
0.22729492,0.05432129,0.07110596,9.114504,8.770992,2.908397,12
0.22583008,0.061767578,0.0803833,8.847328,6.7328243,3.4198472,12
0.23291016,0.0635376,0.064575195,8.198473,7.5114503,5.366412,12
0.22027588,0.06536865,0.070373535,6.0458016,6.603053599999999,6.2900763,12
0.23181152,0.06536865,0.07305908,3.0305343,6.2290077,6.015267400000001,12
0.22930908,0.07104492,0.07531738,6.412214,6.0305343,6.603053599999999,12
0.23120117,0.067871094,0.08026123,4.5038165999999995,5.5648856,7.709923700000001,12
0.23498535,0.06536865,0.07855224599999999,5.9007635,5.9541984,5.0839696,12
0.23059082,0.06304932,0.08203125,6.0305343,6.3587785000000006,2.6335877999999995,12
0.23498535,0.061950684000000006,0.07849121,4.480916000000001,6.2137402999999996,3.9847328999999996,12
0.23486328,0.05999756,0.07354736,5.1984735,9.328244,7.862595599999999,12
0.22735596,0.051513672,0.07086182,7.3664119999999995,9.839694999999999,9.656488000000001,12
0.23315429999999995,0.059204099999999996,0.078063965,10.351144999999999,11.511451,16.229008,12
0.23669434,0.0715332,0.07324219,16.404581,11.534351,22.61832,12
0.23663330000000002,0.06604004,0.07232666,21.091601999999998,14.923664000000002,29.10687,12
0.23736572,0.06201172,0.07165527,19.343512,11.7786255,23.748089999999998,12
0.22930908,0.07464599599999999,0.07550049,15.610686999999999,6.8015265,20.030535,12
0.23223877,0.07098389,0.06890869,15.328244,2.7862597,16.122137,12
0.23138428,0.07739258,0.07159424,8.488549,3.167939,7.816794,12
0.24163818,0.087890625,0.08099365,4.9770994,5.0610685,3.0839694,12
0.23138428,0.068481445,0.08294678,12.320611,2.8854961,2.091603,12
0.23754883,0.081970215,0.08087158,18.030535,1.3282443000000002,4.5725193,12
0.23803711,0.07727051,0.07598877,15.206107000000001,6.778625999999999,3.6564887,12
0.23718262,0.06317139,0.08843994,5.809159999999999,1.3587786,0.22137405,12
0.22515869,0.07983398400000001,0.08361816400000001,-17.832062,5.9770994,-5.740458,12
0.22277832,0.08911133,0.0803833,-4.763358599999999,-3.961832,-7.6870227,12
0.21893310000000002,0.09014892599999999,0.09106445,5.671755999999999,-3.6564887,-8.938931,12
0.20721436,0.07397461,0.07861328,12.519084,-1.4198473999999999,-8.076336,12
0.20391846,0.08001709,0.085876465,2.5801528,4.328244000000001,-15.916031,12
0.20043945,0.07525635,0.08636474599999999,2.0458016,5.0076336999999995,-17.419847,12
0.21697998,0.07739258,0.08770752,-3.3129769999999996,13.198473000000002,-16.038168,12
0.21594238,0.08898926,0.09204101599999999,15.152672,9.396947,-10.595419999999999,12
0.23193360000000002,0.07659912,0.10040283,24.389313,7.961832000000001,-5.1297708,12
0.23803711,0.07421875,0.08172607400000001,15.580152499999999,9.053435,-6.6870227,12
0.2526245,0.062561035,0.10272217,-0.46564886,6.5114503,-14.519084,12
0.2598877,0.07556152,0.10406494,-11.748092,-1.4503816,-20.969465,12
0.26116943,0.07080078,0.10882568,-17.862595000000002,-5.740458,-30.038168,12
0.25299072,0.07482910000000001,0.1038208,-15.122137,-11.366412,-32.89313,12
0.26062012,0.08190918,0.09173584,-1.9312977,-11.870229,-28.244274,12
0.25341797,0.07501221,0.09106445,11.083969,-1.8396946,-14.458015,12
0.25219727,0.058532715,0.1015625,14.435115,-5.603053599999999,-6.526717700000001,12
0.25451660000000004,0.043945312,0.105651855,3.9694656999999998,-14.564885,-6.145038,12
0.24658203,0.037597656,0.11230469,-9.832061,-23.847328,-10.053435,12
0.24713135,0.032287598,0.11688232400000001,-25.290077,-31.877863,-7.2519083,12
0.23382568,0.033813477,0.1282959,-43.82443,-40.51145,-2.389313,12
0.18981934,0.035461426000000004,0.11877441400000001,-58.679390000000005,-44.549618,-3.961832,12
0.18029785,0.04144287,0.099609375,-70.56489,-30.557251,-7.152672,12
0.17321777,0.041137695,0.08013916,-67.03053,-15.847328,-10.167939,12
0.20385742,0.03741455,0.10064697,-54.17556999999999,-4.3129773,-10.068703,12
0.21398926,0.04449463,0.095214844,-43.9771,-3.3282442000000003,-4.3206105,12
0.22540283,0.039367676000000004,0.09399414,-47.381679999999996,-5.3816795,0.053435113,12
0.22283936,0.033203125,0.08929443,-57.290077000000004,-7.3587785000000006,1.0458015,12
0.20098877,0.042297363,0.07653808599999999,-66.46565,-4.152672,1.038168,12
0.1920166,0.05303955,0.07116699,-62.419846,-1.3740458,3.9312977999999994,12
0.19738770000000003,0.05432129,0.06036377,-53.274809999999995,6.0458016,13.198473000000002,12
0.19091797,0.057739257999999995,0.059814453,-43.595420000000004,9.572519,22.770992,12
0.20422363,0.06329346,0.05493164,-37.320609999999995,14.854961,29.091602,12
0.19696045,0.06060791,0.049072265999999996,-27.839695000000003,18.671754999999997,37.503820000000005,12
0.20404053,0.06732178,0.049926757999999995,-21.732824,21.183207,44.0229,12
0.20239258,0.07189941400000001,0.05621338,-19.900763,25.038168,48.595420000000004,12
0.20989989999999997,0.07098389,0.054016113,-16.473282,27.10687,52.374046,12
0.20257568,0.07464599599999999,0.047912598,-9.2595415,24.564885999999998,50.580154,12
0.23736572,0.07287598,0.045837402,-6.9541984,28.534351,56.015266000000004,12
0.24322510000000003,0.06970215,0.039916992000000005,3.3740457999999998,23.664122,56.969467,12
0.26873779999999997,0.076660156,0.05694580000000001,8.473283,19.740458,58.076336,12
0.2763672,0.07855224599999999,0.062683105,13.549619,12.580152499999999,56.053436,12
0.27062988,0.07366943,0.08343506,12.244275,3.6030532999999996,50.93893,12
0.27990723,0.06811523400000001,0.09979248,-4.5114503,-12.022901,39.641220000000004,12
0.3059082,0.10632324,0.09484863,-3.2442749,-17.801527,36.183205,12
0.35327148,0.14550781,0.07751465,28.419846999999997,-9.358779,46.007633,12
0.36706543,0.17309570000000002,0.09716797,87.908394,-2.0458016,46.641220000000004,12
0.33544922,0.16418457,0.14318848,153.89313,-17.839695000000003,30.374046000000003,12
0.31921387,0.10040283,0.14801025,182.26718,-34.618320000000004,-7.5725193,12
0.32318115,0.027160645,0.14990234,184.6565,-47.809162,-60.564884,12
0.30541992,0.005249023,0.13781738,137.59541000000002,-74.41984599999999,-127.68701999999999,12
0.29016113,0.034729004,0.11193848,91.62595,-82.39695,-164.67175,12
0.27026367,0.04144287,0.12243652,73.16794,-98.183205,-176.68703,12
0.20703125,-0.000183,0.09454346,59.71755600000001,-68.19084000000001,-193.58778,12
0.21655273,0.05407715,0.046569824,-19.068703,-53.656490000000005,-188.43511999999998,12
0.2109375,0.06994629,0.08343506,9.328244,-42.885498,-168.23665,12
0.20593262,0.058288574,0.09667969,11.366412,-27.08397,-138.92366,12
0.18933105,0.06738281,0.08624267599999999,43.885498,-32.564884,-110.175575,12
0.18859863,0.039245605,0.10003662,64.10687,-33.885498,-83.20611,12
0.16864014,0.03277588,0.09283447,52.541985,-37.427483,-60.541985,12
0.17016602,0.021118164,0.10357666,27.595419,-32.961834,-54.541985,12
0.16290283,0.027770996000000003,0.10107422,-3.5496182000000003,-30.992366999999998,-49.89313,12
0.17614746,0.032165527,0.09289551,-26.419846999999997,-23.259542,-34.190838,12
0.23413086,0.02960205,0.09301758,-38.82443,-20.687023,-10.496183,12
0.23980713,0.042907715,0.11077881,-39.366413,-16.57252,11.839694999999999,12
0.23352051,0.040222167999999996,0.10131836,-40.862595,-4.1679387000000006,30.480916999999998,12
0.27758790000000005,0.036132812,0.115722656,-63.068703,4.1984735,45.282444,12
0.30651855,0.032226562,0.13238525,-77.61069,0.29007635,61.129771999999996,12
0.29986572,0.03967285,0.13452148,-104.69466,-6.8778625,75.51145,12
0.26806640000000004,0.07073974599999999,0.0803833,-104.03817,2.3282442000000003,96.87786,12
0.28405762,0.072143555,0.07867432,-101.01527,26.793894,113.54198500000001,12
0.28979492,0.095703125,0.07128906,-80.64121999999999,37.320609999999995,126.900764,12
0.28619385,0.07855224599999999,0.07763672,-56.46565,38.305344,138.32062,12
0.2612915,0.06286621,0.09661865,-48.702290000000005,24.809160000000002,128.56488000000002,12
0.23797607,0.054382324,0.080566406,-54.71755600000001,8.358779,111.36641000000002,12
0.21307373,0.044067382999999995,0.072143555,-84.816795,4.480916000000001,89.137405,12
0.20361328,0.050842285,0.07507324,-122.84733,-3.9312977999999994,66.137405,12
0.20184326,0.07965088,0.07769775400000001,-145.25954,-7.1221375,50.221375,12
0.21179199,0.09301758,0.062438965,-131.32062,-13.022901,45.83206,12
0.22039795,0.10266113,0.07873535,-124.770996,-7.778625999999999,45.381679999999996,12
0.24041748,0.10809326,0.07397461,-102.58015400000001,-8.946565,52.44275,12
0.26062012,0.11151123,0.084106445,-80.221375,-5.091603299999999,57.931297,12
0.23669434,0.10882568,0.08648682,-53.48855,-5.8396945,59.038166000000004,12
0.22576904,0.10192871,0.09173584,-43.16794,2.7480917000000002,55.931297,12
0.22851562,0.11108398400000001,0.08532715,-34.572517,6.10687,53.435116,12
0.25756836,0.13262939999999998,0.07458496,-15.679389000000002,15.282442999999999,51.93893,12
0.29144287,0.13842773,0.09881592,11.725191,23.259542,50.015266,12
0.33569336,0.1494751,0.11816406,33.480915,21.793894,40.55725,12
0.34942627,0.16815186,0.113464355,75.42748,16.679389999999998,23.374046,12
0.33148193,0.14074707,0.110839844,125.05344,18.778625,-1.519084,12
0.29180908,0.07348633,0.1428833,147.76335,6.961832000000001,-50.862595,12
0.30072020000000005,0.06121826,0.12652588,128.7481,-13.358779,-93.79389,12
0.29302979999999995,0.06811523400000001,0.12145996,120.05344,-25.236639999999998,-126.84733,12
0.2874756,0.053771973,0.111816406,119.137405,-43.23664,-151.00763,12
0.2633667,0.05078125,0.09173584,102.52672,-46.038166,-175.09923999999998,12
0.25494385,0.07940674,0.06781006,115.43511000000001,-45.480915,-174.3435,12
0.21789551,-0.008300781,0.06732178,164.0458,-31.862595000000002,-130.23665,12
0.21038818,0.03717041,0.04510498,82.0,-19.992367,-156.36641,12
0.21215820000000005,0.05224609400000001,0.08135986,97.72519,-30.0,-133.0687,12
0.2166748,0.054382324,0.10546875,75.824425,-14.015267000000001,-109.40458000000001,12
0.23687744,0.05810547,0.10748291,82.0458,-31.267176,-82.89313,12
0.22314453,0.040527344,0.10247803,69.061066,-33.0229,-51.679390000000005,12
0.22882080000000002,0.026550293,0.109558105,62.458015,-43.0229,-46.89313,12
0.21386719,0.014465332,0.1373291,16.984734,-48.885498,-55.068703,12
0.24896239999999997,0.009094238000000001,0.12927246,-35.679390000000005,-51.648853,-50.099236,12
0.23596191,0.018554688,0.12939453,-72.27481,-54.25954,-54.778625,12
0.24694824,0.03857422,0.105285645,-94.60305,-44.580154,-48.954197,12
0.29174805,0.036499023,0.13568115,-110.83206000000001,-34.580154,-42.06107,12
0.29180908,0.043640137,0.12145996,-103.01527,-31.977097999999998,-16.786259,12
0.25164795,0.06842041,0.08618164,-98.64121999999999,-15.076335999999998,8.015267,12
0.21148682,0.08813476599999999,0.033447266,-62.801525,19.022902,41.480915,12
0.23742676,0.07867432,0.028503418,-33.618320000000004,47.778625,64.061066,12
0.23382568,0.07244873,0.034118652,-4.8778625,64.099236,80.45038000000001,12
0.24346924,0.04663086,0.06555176,6.1984735,56.083969999999994,90.99235999999999,12
0.23272705,0.038330078,0.07769775400000001,-17.152672,29.786259,86.84733,12
0.19946289,0.023925781,0.07104492,-45.717556,7.5114503,82.35878000000001,12
0.18823242,0.016845703,0.07543945,-94.41221999999999,-16.641222,71.89313,12
0.17254639,0.030273438,0.11187744,-152.32062,-18.38168,59.580154,12
0.21252441,0.10314941400000001,0.0635376,-221.41222000000002,-80.32061,10.244275,12
0.20184326,0.11688232400000001,0.06689453,-130.36641,-68.66412,84.33588,12
0.21264648,0.09466553,0.0501709,-172.61831999999998,-27.732824,93.91603,12
0.2529297,0.13653564,0.07379150400000001,-118.70992,-5.6106873,112.79388999999999,12
0.2584839,0.11859131,0.07635498,-51.206109999999995,6.4198474999999995,137.76335,12
0.24389648,0.106933594,0.093566895,-29.91603,15.091603,136.23665,12
0.23748779999999997,0.110839844,0.10650635,-17.610687,14.885496,128.74046,12
0.28753662,0.12567139,0.113464355,-6.4274807,13.343511999999999,116.62595,12
0.32067870000000004,0.15081787,0.12731934,9.297709,10.908397,106.68701999999999,12
0.30725098,0.14147949,0.12823486,28.343512,2.2671757,82.80153,12
0.30462646,0.13342285,0.11859131,38.725190000000005,4.0305343,53.251906999999996,12
0.2998047,0.095703125,0.10858154,48.076336,10.045800999999999,21.396946,12
0.31054688,0.11785889,0.08551025400000001,53.51145,21.374046,-14.748092000000002,12
0.28833008,0.12084961,0.10980224599999999,72.31298000000001,19.297710000000002,-29.534351,12
0.28289795,0.11840819999999999,0.10717773400000001,82.64121999999999,-0.022900764,-41.793890000000005,12
0.2732544,0.11846924,0.09820557,111.33588,-17.045801,-48.0229,12
0.24365234,0.09234619,0.09033203,135.0,-26.42748,-56.045803,12
0.23260498,0.07293701,0.080078125,138.50381000000002,-30.687022999999996,-67.99235999999999,12
0.21112060000000002,0.052612305,0.080200195,128.31297,-30.610687,-85.76335999999999,12
0.21917725,0.06024169999999999,0.10046387,163.18321,-35.93893,-81.68701999999999,12
0.21118164,0.032592773,0.08068848,227.3435,-34.91603,-54.0,12
0.19378662,-0.050964355,0.11749267599999999,250.12977999999998,-50.53435,-1.1984733,12
0.19604492,-0.025939941,0.12109375,66.35878000000001,-62.946564,-66.221375,12
0.24768066,0.031555176000000004,0.12225342,29.358778000000004,-61.748093000000004,-65.72519,12
0.25946045,0.03253174,0.11273193,26.57252,-85.45038000000001,-66.229004,12
0.24316406,0.04876709,0.11730957,-44.473279999999995,-77.79389,-70.816795,12
0.23907470000000003,0.05505371,0.13623047,-46.312977000000004,-86.51908,-69.229004,12
0.24932861,0.006042481,0.16644287,-74.67939,-93.58778000000001,-84.01527,12
0.27124023,0.012451172,0.16217041,-126.99236,-87.80153,-110.83968999999999,12
0.25427246,0.034851073999999996,0.14178467,-142.33588,-78.0,-123.41221999999999,12
0.277771,0.021972656,0.12023926,-144.54199,-48.687022999999996,-115.46565,12
0.26965332,0.010009766,0.121032715,-126.9313,-33.244274,-96.96947,12
0.23852539,0.012878418,0.10485839999999998,-103.74045600000001,-13.938931,-65.59541999999999,12
0.20507812,0.046081542999999996,0.07281494,-78.175575,6.114504,-31.206106,12
0.20324707,0.06518555,0.039123535,-33.572517,33.221375,22.57252,12
0.22058105,0.039794922,0.047729492000000005,4.236641400000001,56.793890000000005,66.37405,12
0.24371338,0.04168701,0.05908203,20.954199,71.27481,90.12214,12
0.22839355,0.02520752,0.07763672,27.412214000000002,66.145035,107.54198500000001,12
0.22894287,0.04748535,0.08319092,9.832061,56.572517000000005,112.53435,12
0.20684814,0.043640137,0.070129395,-9.694656,44.412212,113.824425,12
0.20489502,0.042907715,0.050048828,-28.213741,38.44275,111.0229,12
0.19805908,0.051696777,0.05224609400000001,-46.496179999999995,39.603054,110.03817,12
0.22113037,0.061279297,0.053344727,-66.15267,34.206109999999995,106.381676,12
0.22076416,0.06866455,0.05822754,-76.16031,27.931296999999997,105.900764,12
0.25665283,0.08709717,0.047607422,-75.183205,24.862595000000002,114.08397,12
0.29718018,0.1038208,0.04119873,-63.702290000000005,26.786259,120.98473,12
0.29650879999999996,0.10961914,0.056030273,-51.17557,30.51145,125.12977,12
0.28771973,0.11529541,0.058654785,-31.534351,29.305344,119.83206000000001,12
0.25634766,0.114746094,0.04711914,-17.946566,31.816793,108.41984599999999,12
0.29003906,0.12561035,0.051879882999999995,3.9541983999999997,35.725190000000005,96.03817,12
0.31811523,0.13977051,0.0625,37.221375,35.045803,84.503815,12
0.3265381,0.12860107,0.11541748,65.854965,21.122137,64.9771,12
0.31103516,0.11077881,0.10998535,62.809162,-1.9389313000000001,36.923664,12
0.291687,0.07165527,0.10064697,51.007633,-18.847328,-7.862595599999999,12
0.30059814,0.07366943,0.076293945,30.80916,-26.885496000000003,-47.931297,12
0.26904297,0.090026855,0.1015625,28.61832,-31.503816999999998,-64.0229,12
0.28161620000000004,0.091674805,0.10778808599999999,25.923664000000002,-46.381679999999996,-84.55725,12
0.28381348,0.097839355,0.10498047,41.244274,-55.52672,-94.73283,12
0.27954102,0.10650635,0.096191406,74.175575,-60.78626,-91.92367,12
0.256958,0.08532715,0.09008789,100.65649,-58.106869999999994,-89.0458,12
0.25048828,0.068481445,0.09661865,104.55725,-53.59542,-94.51908,12
0.24987793,0.06121826,0.09954834,107.50381499999999,-48.274809999999995,-98.57252,12
0.24273682,0.04498291,0.11047363,106.74045600000001,-51.984734,-101.59541999999999,12
0.23559570000000005,0.04119873,0.10998535,88.9313,-54.549618,-115.60305,12
0.23077393,0.04156494,0.12457275400000001,79.25191,-60.961833999999996,-117.41221999999999,12
0.21484375,0.03100586,0.12109375,63.32824300000001,-65.72519,-123.183205,12
0.22802734,0.026611327999999997,0.12988281,42.816795,-68.61069,-121.26717,12
0.22485352,0.02960205,0.12982178,13.946565,-68.96947,-124.41984599999999,12
0.21179199,0.035583496,0.12677002,-9.038167999999999,-63.687022999999996,-121.43511000000001,12
0.23693848,0.024230957,0.13256836,-35.10687,-53.267174,-111.00764,12
0.24597168,0.025390625,0.13275146,-56.587788,-46.618320000000004,-101.07633,12
0.22027588,0.021850586,0.115234375,-65.496185,-41.14504,-86.70229,12
0.21374512,0.023132324,0.08557129,-69.0,-23.450382,-57.61832,12
0.24841309,0.032592773,0.08551025400000001,-67.099236,-6.6412214999999994,-31.229008,12
0.24468994,0.047180176,0.07843017599999999,-49.954197,2.5496182000000003,6.6793895,12
0.23370361,0.036499023,0.08868408,-46.381679999999996,9.229008,44.755726,12
0.22137451,0.038208007999999995,0.059814453,-48.671757,14.59542,68.37405,12
0.234375,0.049865723,0.05731201,-44.48855,30.885496000000003,90.41984599999999,12
0.24908447,0.059020996,0.058044434000000006,-37.23664,39.007633,110.137405,12
0.25769043,0.06701660000000001,0.06341553,-31.496183000000002,43.85496,126.42748,12
0.25268555,0.04486084,0.08660889,-58.28244399999999,27.175572999999996,133.63359,12
0.24133301,0.04626465,0.083984375,-83.778625,8.7404585,125.21373999999999,12
0.22406006,0.06945801,0.07720947,-110.70228999999999,4.396946400000001,115.15267,12
0.22845459,0.08013916,0.068847656,-123.70992,2.7709923,107.28244,12
0.23083496,0.09204101599999999,0.08135986,-115.61068999999999,-2.0839694,106.48855,12
0.25701904,0.10559082,0.06713867,-103.35114,-0.519084,104.65649,12
0.27392578,0.11840819999999999,0.05871582,-76.74809,6.3129773,107.10687,12
0.27947998,0.11053467,0.06451416,-60.48855,13.465648999999999,106.618324,12
0.26794434,0.117370605,0.07769775400000001,-57.038166000000004,14.320610999999998,92.33588,12
0.24389648,0.119628906,0.07171631,-50.183205,14.641221,79.37405,12
0.26611328,0.115234375,0.08264160000000001,-36.320609999999995,12.9007635,67.51908,12
0.2989502,0.13842773,0.080200195,-15.496182999999998,9.664123,58.244274,12
0.28869629999999996,0.13964844,0.0871582,8.282442999999999,4.854962,53.48855,12
0.29797363,0.13427734,0.09625244,17.099237,-1.4351145,34.08397,12
0.29748535,0.1352539,0.09460449,34.038166,-1.0076336,9.0992365,12
0.30303955,0.1194458,0.07897949,54.458015,3.3893129999999996,-13.244275,12
0.27447509999999997,0.12915039,0.08477783,67.67939,3.6106870000000004,-40.725190000000005,12
0.28063965,0.11828613,0.10449219,82.53435,-1.5343511,-54.64122,12
0.29321290000000005,0.09863281,0.09991455,94.15267,-14.511451000000001,-71.9542,12
0.28808594,0.09210205,0.09686279,113.0458,-23.320610000000002,-86.48855,12
0.28967285,0.07281494,0.09637451,120.05344,-26.496183000000002,-101.30534,12
0.27307129999999996,0.07476807,0.10864258,123.15267,-31.984734000000003,-111.52672,12
0.28594970000000003,0.0690918,0.09289551,120.96183,-32.320609999999995,-125.137405,12
0.25787354,0.054138184000000006,0.11694336,123.54198500000001,-42.038166,-131.96184,12
0.23602295,0.033996582000000004,0.10656738,122.85496499999999,-46.343509999999995,-135.45038,12
0.23669434,0.0390625,0.08905029,96.34351,-45.732826,-140.58778,12
0.2421875,0.031677246,0.10394287,84.72519,-50.51145,-141.50381000000002,12
0.23217773,0.028137207,0.11932373,61.656490000000005,-48.14504,-137.33588,12
0.23364258,0.021972656,0.11059569999999999,37.46565,-51.198475,-134.67175,12
0.20593262,0.028015137000000002,0.119018555,13.251907999999998,-47.53435,-124.51908,12
0.21319580000000002,0.020507812,0.12670898,-7.2137402999999996,-45.625954,-115.83206000000001,12
0.2300415,0.010620117,0.12371826,-28.29771,-42.51145,-102.03053,12
0.23455810000000002,0.017822266,0.11602783,-43.816795,-44.908398,-86.74809,12
0.23162842,0.0178833,0.10748291,-54.59542,-37.870228000000004,-55.83969499999999,12
0.26586914,0.006103516,0.11480713,-75.70229,-24.954199,-39.564884,12
0.26470947,0.020141601999999998,0.10589599599999999,-82.12977,-24.183207,-4.816794,12
0.24737549,0.043945312,0.08892822,-83.503815,-16.007633,34.610687,12
0.21453857,0.05810547,0.056274414,-66.96183,2.7251909,70.221375,12
0.23681639999999998,0.051696777,0.059387207000000004,-59.961833999999996,23.961832,97.64886,12
0.25250244,0.059448242000000005,0.0715332,-43.618320000000004,31.290077,117.87023,12
0.26293945,0.046691895,0.08953857400000001,-34.206109999999995,30.25191,132.15266,12
0.2456665,0.05065918,0.10717773400000001,-37.53435,15.183207000000001,138.09923999999998,12
0.23034668,0.050109863,0.09588623,-54.22900799999999,3.1374047000000003,143.36641,12
0.22344970000000003,0.05609131,0.089782715,-79.618324,-3.3664122000000005,137.66412,12
0.22314453,0.06451416,0.08605957,-101.0458,-4.7480917,139.60306,12
0.23358154,0.08685303,0.08764648400000001,-111.65648999999999,-2.8015267999999995,138.41222,12
0.24810791,0.09265137,0.08868408,-102.16031,-5.557252,137.89313,12
0.2682495,0.10803223,0.08581543,-90.0,-3.1145039,137.25954,12
0.2779541,0.12432861,0.08795166,-70.30534,5.519083999999999,137.15266,12
0.27886963,0.11364746,0.09375,-58.893130000000006,15.870229,126.79388999999999,12
0.26519775,0.12072754,0.085754395,-50.78626,23.08397,110.89313,12
0.258667,0.11291504,0.09088135,-39.564884,27.137404999999998,89.9313,12
0.2763672,0.10736084,0.089660645,-28.541984999999997,31.175572999999996,69.37405,12
0.29589844,0.14001465,0.078063965,-7.816794,30.053434000000003,55.25954,12
0.29290770000000005,0.13623047,0.09313965,11.244275,25.465649,45.229008,12
0.30133057,0.12506104,0.10760498,18.183207,11.183207000000001,26.885496000000003,12
0.27746582,0.12194824,0.083496094,27.274809,5.0305343,1.1526718,12
0.29174805,0.12536621,0.07122803,43.725190000000005,4.664122,-25.0,12
0.27801514,0.12170410000000002,0.089660645,64.83969,-0.39694658,-44.541985,12
0.2748413,0.11126709,0.10449219,79.137405,-9.129771,-59.25954,12
0.29211426,0.10266113,0.10479736,105.51908,-28.419846999999997,-73.824425,12
0.29443359999999996,0.09271239999999999,0.101379395,127.37405,-38.610687,-92.137405,12
0.29919434,0.070373535,0.11047363,131.7939,-42.755726,-108.45038000000001,12
0.30181885,0.05609131,0.10345459,129.80916000000002,-48.0229,-125.67938999999998,12
0.30432129999999996,0.050842285,0.11328125,118.87023,-51.450382,-141.45038,12
0.2838745,0.07183838,0.13275146,124.83206000000001,-64.175575,-147.69466,12
0.26293945,0.015258788999999998,0.115356445,114.50381499999999,-65.8855,-165.15266,12
0.255188,0.038330078,0.10681152,83.229004,-57.74046,-162.8855,12
0.25341797,0.038330078,0.10668945,67.32061,-66.52672,-161.29771000000002,12
0.23187256,0.041503906,0.1003418,24.450382,-61.206109999999995,-144.23665,12
0.25469970000000003,0.03881836,0.07696533,-58.312977000000004,1.1221374,52.71755600000001,12
0.22668457,0.049804688,0.04650879,-46.702290000000005,9.908397,81.41984599999999,12
0.24157715,0.05267334,0.055236815999999994,-44.503820000000005,30.091602,109.30533999999999,12
0.2670288,0.04272461,0.06640625,-32.053436,30.67939,127.45801499999999,12
0.27709959999999995,0.04248047,0.08868408,-35.603054,27.664121999999995,137.07634,12
0.26306152,0.043518065999999994,0.10736084,-46.305344,13.267176000000001,142.18321,12
0.26190186,0.038757323999999996,0.10040283,-69.96183,-1.2137405,143.44275,12
0.24340820000000005,0.048950195,0.10253906,-105.45801499999999,-12.9007635,136.63359,12
0.23815918,0.06964111,0.09307861,-131.87787,-16.229008,136.24428,12
0.24914551,0.080078125,0.09423828,-136.9771,-16.198473,137.62596000000002,12
0.25506592,0.09643555,0.10119629,-134.19847,-15.763359,138.29007,12
0.27178955,0.11096191400000001,0.09283447,-121.60305,-14.763359,142.7481,12
0.27496338,0.12841797,0.08758545,-93.46565,-6.335878,148.17557,12
0.28222656,0.13079834,0.08905029,-75.47328,3.2366412,140.61068999999998,12
0.26733398,0.1295166,0.09704589999999999,-61.16794,9.076336,126.31298000000001,12
0.25195312,0.11846924,0.09027099599999999,-47.91603,14.625955,100.98473,12
0.2576294,0.10809326,0.10113525400000001,-44.15267,18.61832,75.35878000000001,12
0.28118896,0.1328125,0.10607910000000002,-33.0229,18.320610000000002,54.458015,12
0.262146,0.13848877,0.09826660000000001,0.7251908,2.832061,-9.328244,12
0.25384520000000005,0.12536621,0.09552002,21.206106,10.503817,-37.053436,12
0.2878418,0.13171387,0.08404541,47.251907,17.687023,-49.389313,12
0.27801514,0.14550781,0.10296631,86.41221999999999,16.244274,-55.251906999999996,12
0.29101562,0.12683105,0.12298584,110.37405,6.8015265,-56.84733000000001,12
0.30480957,0.11706543,0.11273193,138.9313,-1.091603,-67.900764,12
0.31274414,0.097595215,0.121276855,164.0687,-10.038167999999999,-85.87023,12
0.32409668,0.07348633,0.13275146,180.08397,-20.908398000000002,-101.29008,12
0.31573486,0.055114746,0.13763428,173.46565,-31.221375,-124.21373999999999,12
0.31195068,0.038635254,0.13055419999999998,160.05344,-49.9771,-144.8855,12
0.3069458,0.014343261999999999,0.11047363,152.40458999999998,-67.74045600000001,-144.9313,12
0.27001953,0.016235351999999998,0.12298584,95.42748,-58.312977000000004,-183.38931000000002,12
0.24890137,0.04046631,0.12060547,90.824425,-57.21374,-182.21375,12
0.24572754,0.032348632999999995,0.10534668,59.954197,-52.183205,-179.54962,12
0.2456665,0.039611816,0.10198974599999999,39.206109999999995,-49.15267,-166.80153,12
0.22839355,0.043884277,0.09838867,29.717558,-47.458015,-147.83206,12
0.22033691,0.038085938,0.10522461,21.625954,-40.08397,-128.32062,12
0.22674560000000002,0.027038574,0.11682129,10.389313000000001,-38.473279999999995,-111.94656,12
0.24938965,0.02331543,0.12536621,-4.4656487,-38.320609999999995,-87.8855,12
0.237854,0.020385742,0.109313965,-19.557251,-42.23664,-67.900764,12
0.22949219,0.012756348,0.11077881,-38.755726,-30.358778000000004,-51.587788,12
0.246521,0.012268066000000001,0.10522461,-57.0229,-22.091601999999998,-23.91603,12
0.25256348,0.024475097999999997,0.09234619,-64.40458000000001,-15.236641,12.656488000000001,12
0.21154785,0.05407715,0.059814453,-66.503815,3.351145,46.320609999999995,12
0.20703125,0.04675293,0.059936523,-56.87786,22.557251,80.08397,12
0.24084473,0.046936035,0.060791015999999996,-55.648853,34.572517,101.900764,12
0.26538086,0.055908203,0.07867432,-52.14504,33.969467,122.9771,12
0.26464844,0.05999756,0.07580566400000001,-46.572517,24.977098,138.36641,12
0.25732422,0.053955078,0.084106445,-59.725190000000005,17.412214000000002,151.9542,12
0.23742676,0.05267334,0.09637451,-78.29008,3.4122138,153.54962,12
0.22106934,0.04833984400000001,0.09857178,-109.33588,-7.5725193,146.0916,12
0.24279785,0.060424805,0.06921387,-134.46565,-9.572519,142.16031,12
0.25231934,0.08569336,0.07751465,-137.01527,-11.198473,141.83969,12
0.272583,0.08642578,0.10058594,-131.16794,-15.312976999999998,149.30534,12
0.29522705,0.10876465,0.09869385,-123.908394,-13.21374,151.31297,12
0.32904053,0.13427734,0.07525635,-104.47328,-7.3816795,158.16031,12
0.32922363,0.14343262,0.090026855,-84.19084000000001,0.9312976999999999,152.16031,12
0.29724120000000004,0.14196777,0.07928467,-61.77099200000001,8.78626,136.8855,12
0.26800537,0.13256836,0.08984375,-39.85496,20.404581,114.21373999999999,12
0.28405762,0.11590576,0.09051514,-17.251910000000002,30.145039,87.08397,12
0.29327393,0.13397217,0.10852051,-2.2900763,30.557251,62.702290000000005,12
0.2871704,0.1362915,0.12200928,4.7175574000000005,15.564885,37.045803,12
0.270813,0.11907959,0.11859131,1.7786259999999998,-1.4885496,8.21374,12
0.24389648,0.12078857400000001,0.10089111,-7.3129773,-2.7328243,-27.80916,12
0.24212646,0.11676025400000001,0.09924316400000001,6.1603055,-2.6335877999999995,-47.992367,12
0.26654053,0.13293457,0.09643555,26.885496000000003,0.9847328000000002,-55.0,12
0.27563477,0.15014648,0.10333252,69.00764000000001,-3.6030532999999996,-55.206109999999995,12
0.28479004,0.14337158,0.11370849599999999,109.770996,-10.916031,-51.984734,12
0.28967285,0.12585449,0.11529541,151.39694,-13.007633,-54.633587,12
0.2982788,0.10308838,0.12762451,180.24428,-16.809160000000002,-63.9771,12
0.30737305,0.0690918,0.14105225,195.92366,-28.625953999999997,-87.938934,12
0.30377197,0.054260254,0.14916992,177.45801,-43.12214,-114.61068999999999,12
0.28131104,0.025512695,0.1375122,147.2061,-59.52672,-142.59541000000002,12
0.27838135,0.026489257999999998,0.13189697,117.33588,-69.45038000000001,-165.15266,12
0.25732422,0.023864746000000003,0.12854004,90.25954399999999,-71.98473,-185.07634,12
0.25689697,0.023803711,0.11230469,63.114502,-69.69466,-189.98473,12
0.25054932,0.043762207000000004,0.11077881,40.679390000000005,-63.541985,-188.03816,12
0.23907470000000003,0.05407715,0.110839844,29.541984999999997,-52.9771,-170.31297,12
0.23028564,0.055603027,0.10266113,19.763360000000002,-42.519085,-145.9542,12
0.23168945,0.036010742000000005,0.11352539,15.175572,-35.46565,-124.75572,12
0.24078369,0.022521972999999997,0.12658691,6.236641400000001,-33.099236,-105.19847,12
0.23962402,0.023132324,0.12927246,-10.7786255,-35.06107,-89.94655999999999,12
0.2322998,0.027893066,0.10723877,-19.824427,-31.312977000000004,-71.938934,12
0.23925781,0.02911377,0.09484863,-23.725191,-13.244275,-49.25954,12
0.24316406,0.026428222999999997,0.09442139,-23.007633,-5.5114503,-18.221375,12
0.23638916,0.032714844,0.07952881,-28.977097999999998,8.442748,18.725191,12
0.21893310000000002,0.05731201,0.05621338,-43.526720000000005,22.351145000000002,46.603054,12
0.21685791,0.058776855,0.046325684000000006,-37.755726,39.137405,74.32825,12
0.24365234,0.0501709,0.052856445,-31.992366999999998,43.404579999999996,92.778625,12
0.2597046,0.036499023,0.06335449,-39.87786,42.404579999999996,104.770996,12
0.25372314,0.030578612999999998,0.09289551,-54.015266000000004,21.076335999999998,104.99236,12
0.22723389,0.031677246,0.08270264,-74.229004,-4.9694657,100.503815,12
0.20190429999999998,0.04071045,0.08203125,-105.31298000000001,-17.625954,100.862595,12
0.19726562,0.05596924,0.07562256,-131.47328000000002,-24.10687,101.21374,12
0.21343994,0.068359375,0.07940674,-138.87022,-28.801527,108.12977,12
0.22229004,0.07543945,0.07843017599999999,-147.87022,-28.694656,115.84733,12
0.25842285,0.10266113,0.07269287,-139.8855,-23.122137,132.9771,12
0.27618408,0.10369873,0.09185791,-130.80916000000002,-22.045801,145.63359,12
0.29998779999999997,0.12097168,0.10308838,-121.75572,-19.030535,155.98473,12
0.30548096,0.14764404,0.10241699,-88.48855,-14.648855,161.62596000000002,12
0.27447509999999997,0.15478516,0.09545898400000001,-60.954197,-7.290076299999999,157.89313,12
0.2756958,0.15942383,0.09881592,-37.183205,4.4961834000000005,138.07634,12
0.30236816,0.15307617,0.097473145,-6.9847326,16.51145,113.64886000000001,12
0.3065796,0.14624023,0.10784912,25.198473,25.603054,81.19084000000001,12
0.29522705,0.11206055,0.118652344,27.908398,26.458015000000003,39.801525,12
0.2826538,0.103515625,0.10046387,9.870229,21.053434,-3.0152671000000004,12
0.25421143,0.118652344,0.091796875,0.19083970000000003,24.992367,-36.427483,12
0.2668457,0.10101318,0.0793457,14.580152499999999,16.57252,-55.931297,12
0.29058838,0.12445068,0.1038208,29.030534999999997,10.297709,-53.687022999999996,12
0.32043457,0.12902832,0.13812256,60.71755600000001,-8.633588,-55.62595400000001,12
0.317688,0.12884521,0.12182617,93.65649,-25.992367,-49.366413,12
0.2902832,0.11468506,0.08013916,120.59541999999999,-19.534351,-55.37404599999999,12
0.26428223,0.09265137,0.091674805,146.58015,-3.4961832000000004,-56.16030500000001,12
0.25524902,0.08117676,0.09466553,173.74046,1.4656489,-78.15267,12
0.23913574,0.06463623,0.085754395,185.99237,-12.603053,-95.59541999999999,12
0.25952148,0.06732178,0.08123779,225.8626,-35.89313,-60.12214,12
0.22705078,0.03466797,0.14611816,250.12977999999998,-17.251910000000002,-45.961834,12
0.21044922,-0.11004639,0.1519165,232.07634,-92.29008,-80.778625,12
0.18701172,-0.007263184000000001,0.09674072,4.625954,-52.10687,-153.92366,12
0.23858643,0.043701172,0.09472656,8.923664,-78.221375,-132.21375,12
0.23223877,0.04827881,0.09918213,-3.870229,-73.099236,-111.92367,12
0.23144531,0.06744385,0.11663818,-45.78626,-57.396946,-97.862595,12
0.22888184,0.06317139,0.12170410000000002,-26.70229,-64.44275,-59.14504,12
0.2520752,0.024291992000000002,0.14666748,-36.0229,-73.816795,-54.69465600000001,12
0.25274658,0.024353027000000003,0.15893555,-62.38168,-82.061066,-57.28244399999999,12
0.26519775,0.024475097999999997,0.1328125,-78.9771,-78.0687,-67.55725,12
0.28277588,0.02130127,0.13897705,-99.19847,-54.87786,-68.16794,12
0.26989746,0.014770508,0.13354492,-101.78626,-37.671757,-65.79389,12
0.23046875,0.029968262000000002,0.1071167,-101.35114,-14.793892999999999,-54.335876,12
0.21948242,0.066589355,0.068359375,-76.73283,12.229008,-20.007633,12
0.23126220000000003,0.08911133,0.056030273,-37.770992,44.351147,31.954199,12
0.22625732,0.07904053,0.051452637,8.114504,65.33588,71.25191,12
0.21466064,0.06842041,0.056640625,30.137404999999998,78.74045600000001,98.52672,12
0.19696045,0.052856445,0.06567383,42.76336,77.68701999999999,114.80153,12
0.18743896,0.03656006,0.07373047,27.396946000000003,66.59541999999999,114.61068999999999,12
0.17340088,0.022888184,0.08355713,-9.183207000000001,50.045803,101.87786,12
0.17004395,0.026000977,0.07611084,-56.23664,31.282442,89.0687,12
0.17987060000000002,0.04309082,0.07977295,-92.183205,16.93893,77.78626,12
0.20983887,0.07122803,0.070251465,-106.87023,9.870229,77.46565,12
0.22473145,0.07348633,0.08135986,-99.900764,5.740458,85.778625,12
0.25579834,0.11938476599999999,0.05694580000000001,-90.41221999999999,16.854961,102.30534,12
0.27850342,0.13293457,0.044128417999999996,-53.9771,31.977097999999998,128.66412,12
0.26666259999999997,0.13342285,0.03466797,-14.541985,56.40458,146.07634,12
0.26904297,0.13879395,0.047424315999999994,19.580153,69.51145,155.52671999999998,12
0.31518555,0.14282227,0.0703125,60.17556999999999,72.900764,157.77863,12
0.3571167,0.15423584,0.06695557,93.75572,72.58778000000001,149.3435,12
0.33447266,0.1282959,0.093566895,111.75572,59.106869999999994,131.2519,12
0.31433105,0.067871094,0.11706543,96.862595,25.274809,79.03817,12
0.28814697,0.040405273,0.08972168,47.450382,-3.3358779999999997,7.2748094,12
0.29016113,0.038024902,0.09838867,-9.656488000000001,-13.717557000000001,-51.564884,12
0.29589844,0.049682617000000005,0.10040283,-28.625953999999997,-39.870228000000004,-86.229004,12
0.29974365,0.072265625,0.118652344,-48.23664,-65.137405,-110.68701999999999,12
0.3272705,0.11273193,0.12561035,-29.732824,-96.70992,-115.41984599999999,12
0.31964109999999996,0.13110352,0.09020996,18.946566,-109.54961999999999,-97.19084000000001,12
0.28527832,0.10717773400000001,0.07684326,73.20611,-85.98473,-70.62595,12
0.2524414,0.07061767599999999,0.06347656,97.84733,-70.98473,-68.87023,12
0.21398926,0.029418945,0.08044433599999999,130.26718,-29.12977,-66.26717,12
0.18969727,-0.003601074,0.10192871,90.778625,-43.55725,-107.51145,12
0.20654297,0.014282227,0.10223389,31.839695000000003,-72.54961999999999,-141.41222,12
0.21624756,0.043701172,0.09338379,8.717557000000001,-72.38931,-138.51144,12
0.20654297,0.048461914,0.09503174,11.450381,-71.61069,-121.816795,12
0.19714355,0.026306152000000003,0.10632324,-12.671756,-59.74046,-107.57252,12
0.21551514,0.03112793,0.10021973,-40.87786,-50.694656,-88.48092,12
0.23297119,0.03363037,0.12145996,-56.69465600000001,-41.030533,-64.74809,12
0.22692871,0.047302246,0.09527588,-63.85496,-32.93893,-45.519085,12
0.22766113,0.04437256,0.089660645,-71.19084000000001,-11.557252,-14.160305,12
0.23052979,0.05407715,0.083862305,-55.923664,-7.908396700000001,14.389313000000001,12
0.23748779999999997,0.04925537,0.11370849599999999,-54.274809999999995,3.2595419999999997,43.190838,12
0.21447754,0.063964844,0.09344482400000001,-49.099236,6.839694500000001,68.9313,12
0.22192383,0.07183838,0.07312012,-51.74046,28.587785999999998,97.229004,12
0.265625,0.085998535,0.06005859400000001,-29.51145,49.21374,117.54961999999999,12
0.2746582,0.09283447,0.06915283,0.610687,66.61069,134.23665,12
0.25543213,0.07891846,0.07965088,29.992366999999998,70.20611,143.08397,12
0.21350098,0.06744385,0.07788086,49.78626,68.48855,137.56488000000002,12
0.19195557,0.042663574,0.08062744,46.068703,58.77099200000001,121.44275,12
0.17480469,0.029785156,0.09332275400000001,5.763358599999999,48.954197,94.35878000000001,12
0.18707275,0.049743652,0.07672119,-43.664124,23.099237,67.1145,12
0.22521973,0.023986816,0.026916503999999997,-86.23664000000001,-35.427483,39.603054,12
0.1942749,0.09777832,0.09277344,-160.98473,30.030534999999997,19.068703,12
0.22833252,0.08874512,0.09033203,-47.961834,-11.473283,50.381679999999996,12
0.22241211,0.09832764,0.059936523,-90.35878000000001,26.877863,50.687022999999996,12
0.22998047,0.11035156,0.06262207,-57.030533,27.274809,61.984733999999996,12
0.22106934,0.10894775400000001,0.059143065999999994,-40.007633,36.412212,67.66412,12
0.25030518,0.1116333,0.059814453,-16.48855,33.374046,73.69466,12
0.28588867,0.1038208,0.08465576,-5.1221375,32.82443,74.25191,12
0.3357544,0.12213135,0.10394287,2.6946564,21.633587,69.24428,12
0.32427979999999995,0.11444092,0.1281128,8.709924,4.9541984,58.25954,12
0.3031006,0.10559082,0.12878418,-8.160305000000001,-13.435115,25.396946,12
0.26898193,0.08276367,0.07678223,-11.946565,-12.954199000000001,-20.267176,12
0.27069092,0.06359863,0.10479736,-18.625954,1.1679389999999998,-53.30534399999999,12
0.28778076,0.085876465,0.11340332,-5.8625956,-5.526717700000001,-77.23664000000001,12
0.30566406,0.099121094,0.12731934,14.244275,-16.145039,-80.36641,12
0.32141113,0.12048339999999998,0.13519287,53.778625,-40.328243,-65.27481,12
0.2991333,0.109436035,0.09429932,125.48855,-54.541985,-52.633587,12
0.25787354,0.08734131,0.08483887,161.76335,-30.564885999999998,-34.221375,12
0.23553467,0.07312012,0.06732178,168.57253,-8.847328,-27.435114000000002,12
0.22491455,0.068237305,0.07525635,205.98473,-6.89313,-6.6412214999999994,12
0.17871094,0.052368164,0.08319092,229.7481,15.755725,0.73282444,12
0.17346191,0.003662109,0.12567139,250.12977999999998,34.389313,6.6946563999999995,12
0.18182373,-0.06665039,0.11389160000000002,124.36641000000002,-58.137405,-46.671757,12
0.18737793,0.036804199999999995,0.09332275400000001,-29.732824,-26.068703,-95.29771,12
0.23010254,0.053710938,0.10620117,41.809162,-76.54961999999999,-81.41984599999999,12
0.22192383,0.026367188,0.087890625,18.541985,-88.39695,-72.55725,12
0.23651123,0.037719727,0.10949707,-32.435116,-87.16031,-73.854965,12
0.22351074,0.052490234000000004,0.10345459,-39.48855,-90.938934,-53.61832,12
0.23327637,0.03149414,0.12078857400000001,-78.64886,-79.0229,-53.38168,12
0.2553711,0.030151367000000002,0.13470459,-108.62595,-77.496185,-61.068703,12
0.26055908,0.03289795,0.1373291,-130.00763,-67.1145,-68.15267,12
0.27496338,0.01574707,0.14257812,-142.78625,-56.664124,-66.63359,12
0.26397705,0.013244628999999999,0.13134766,-139.45038,-45.007633,-55.068703,12
0.26031494,0.018127441,0.11224365,-124.908394,-23.778625,-36.954197,12
0.22143555,0.09350586,0.050354004,-81.25954399999999,6.0992365,2.4503817999999997,12
0.23742676,0.11425781,0.009765625,-6.183206,60.351147,64.41221999999999,12
0.24609375,0.080566406,0.006774901999999999,67.19847,100.9542,99.26717,12
0.23272705,0.041625977,0.038269042999999996,103.23664000000001,129.48856,114.89313,12
0.21252441,0.012390136999999999,0.10504150400000001,96.816795,125.862595,108.9771,12
0.19732666,0.00177002,0.09375,29.229008,79.9771,84.69466,12
0.19372559,0.014221191000000001,0.07147217,-19.038168,53.22900799999999,70.061066,12
0.19104004,0.04522705,0.06427002,-82.89313,12.625955000000001,45.396946,12
0.21209717,0.07116699,0.052978515999999996,-88.16031,2.1145039,42.282444,12
0.22583008,0.08563232400000001,0.054992676,-78.099236,3.1755726,49.84733,12
0.23693848,0.09124756,0.036743164,-61.30534399999999,18.114504,61.748093000000004,12
0.24340820000000005,0.10125732400000001,0.048950195,-37.694656,28.312977000000004,71.69466,12
0.24462889999999998,0.09820557,0.064331055,-25.824427,42.137405,82.29008,12
0.24169922,0.09942627,0.062561035,-7.908396700000001,38.923664,81.28244000000001,12
0.24401855,0.09527588,0.0703125,-1.2824427,37.08397,80.83969,12
0.29058838,0.09655762,0.09344482400000001,1.6335878000000001,29.175572999999996,74.80153,12
0.32958984,0.109375,0.09008789,6.9160304,14.885496,63.793890000000005,12
0.31951904,0.11297607400000001,0.11401367,20.190839999999998,-1.2748091000000001,53.69465600000001,12
0.3024292,0.089904785,0.1270752,10.679389,-19.442749,22.335878,12
0.28735352,0.06671142599999999,0.10180664,-6.961832000000001,-28.70229,-23.778625,12
0.29016113,0.07000732400000001,0.10968017599999999,-19.045801,-22.603054,-51.954197,12
0.29797363,0.08813476599999999,0.11651611,-14.114504,-23.442749,-71.091606,12
0.30181885,0.10028076,0.13110352,-2.9923662999999996,-29.900763,-80.221375,12
0.30737305,0.11645508,0.12072754,30.725191,-44.183205,-71.48855,12
0.28381348,0.10681152,0.08892822,83.29008,-43.633587,-57.50382,12
0.2536621,0.09429932,0.08563232400000001,118.9771,-29.312977000000004,-53.954197,12
0.22888184,0.059936523,0.06842041,122.49618500000001,-24.694656,-54.22900799999999,12
0.23040771,0.06939697,0.041137695,165.6565,-17.290077,-29.114503999999997,12
0.20819092,0.004760742,0.111450195,196.41985,-42.10687,-47.526720000000005,12
0.16558838,-0.024169922000000003,0.099731445,69.37405,-26.175573,-90.98473,12
0.21429443,0.053894042999999996,0.10278319999999999,12.419847500000001,-41.931297,-115.23664,12
0.21789551,0.044555664,0.11743164,52.328243,-66.229004,-115.40458000000001,12
0.22912598,0.053894042999999996,0.10424805,-2.8854961,-69.1145,-113.42748,12
0.20947266,0.032470703,0.09411621,-1.7938931,-69.908394,-98.33588,12
0.21020508,0.041931152,0.10321045,-20.114504,-56.84733000000001,-85.67939,12
0.21466064,0.033569336,0.11230469,-32.76336,-46.954197,-62.992367,12
0.23773193,0.020141601999999998,0.11804199,-52.12214,-41.587788,-52.251907,12
0.22460938,0.018432617,0.10998535,-68.39695,-38.564884,-52.62595400000001,12
0.22973633,0.01739502,0.11804199,-86.618324,-28.366413,-32.320609999999995,12
0.23297119,0.043273926,0.11297607400000001,-94.183205,-21.625954,-8.839694999999999,12
0.23840332,0.049133300000000005,0.10418701,-90.43511,-10.664123,21.809160000000002,12
0.21240234,0.066467285,0.090026855,-74.25191,3.2442749,52.85496,12
0.26989746,0.08679199,0.06518555,-25.366413,52.84733000000001,100.70229,12
0.26812744,0.08105469,0.05859375,6.885496000000001,73.0458,121.21373999999999,12
0.23907470000000003,0.08325195,0.053710938,29.08397,80.29008,129.54199,12
0.21533203,0.06732178,0.058654785,33.290077000000004,82.67939,128.12978,12
0.20025635,0.045654297,0.06555176,12.748092,72.0,113.9771,12
0.18145752,0.028015137000000002,0.05834961,-41.183205,47.12214,82.0,12
0.21862793,0.028320312,0.030273438,-98.30534,-14.511451000000001,52.23664,12
0.19671631,0.07476807,0.05218506,-174.52671999999998,23.122137,28.526718,12
0.22790527,0.11407471,0.07897949,-83.9771,-5.2977099999999995,43.053436,12
0.23681639999999998,0.08880615,0.06683349599999999,-83.59541999999999,-7.664122,49.625954,12
0.2658081,0.113342285,0.07684326,-79.41221999999999,-8.80916,60.38168,12
0.26458740000000003,0.13348389,0.07269287,-53.099236,-6.5038165999999995,64.96947,12
0.25891113,0.13995361,0.07098389,-32.870228000000004,4.3893127,70.74045600000001,12
0.30596924,0.15405273,0.07916260000000001,-4.412214,8.343511999999999,72.16794,12
0.3139038,0.1439209,0.10906982400000001,19.770992,11.916031,59.9771,12
0.31134033,0.13702393,0.11053467,38.053436,4.1984735,42.389313,12
0.28863525,0.10784912,0.09906006,44.305344,-0.9236641,8.320611,12
0.2755127,0.06103515599999999,0.12048339999999998,27.42748,0.10687023,-40.55725,12
0.28082275,0.07067871,0.09967041,1.0305344,-7.2137402999999996,-75.75572,12
0.28430176,0.08428955,0.13787842,2.3740457999999998,-18.160304999999997,-92.9771,12
0.3032837,0.08697510000000001,0.14422607,-4.6793895,-35.351147,-106.03053,12
0.2942505,0.10864258,0.10803223,25.549618,-44.961834,-104.62595,12
0.27526855,0.11584473,0.095581055,74.0458,-30.229008,-86.35114,12
0.24084473,0.0769043,0.091674805,112.74808999999999,-16.625954,-75.96183,12
0.22918701,0.070129395,0.078186035,100.19084000000001,3.2824428,-85.48855,12
0.21197510000000003,0.052978515999999996,0.08642578,135.85497,3.3664122000000005,-74.35878000000001,12
0.20495605,0.04046631,0.08544922,91.21374,5.6870227,-99.816795,12
0.19891357,0.06481933599999999,0.11114502,100.51145,-7.6946563999999995,-104.67175,12
0.20227051,0.033508300000000005,0.11291504,85.32061,-24.656488,-109.00764,12
0.199646,0.033447266,0.11328125,72.381676,-40.25954,-107.19084,12
0.20550537,0.028930664,0.10644531,59.587788,-47.84733,-101.60305,12
0.19525146,0.034057617000000005,0.10125732400000001,39.648853,-51.641220000000004,-92.01527,12
0.20092773,0.033447266,0.09686279,20.259542,-45.15267,-79.44275,12
0.20703125,0.041625977,0.10571289,0.96183205,-36.51145,-59.59542,12
0.22430419999999998,0.034729004,0.12310791,-19.679389999999998,-29.580153000000003,-49.068703,12
0.22369385,0.04510498,0.11010742,-35.221375,-25.709923,-28.946565999999997,12
0.21374512,0.04937744,0.08251953,-35.503820000000005,-13.816792999999999,-7.19084,12
0.23425293,0.04425049,0.10003662,-38.519085,4.8320612999999994,13.251907999999998,12
0.24865723,0.048828125,0.10449219,-31.534351,5.778626,31.89313,12
0.25946045,0.032409667999999996,0.12139892599999999,-47.923664,8.572519,52.55725,12
0.23718262,0.055908203,0.097717285,-61.885498,-2.4732822999999997,63.083969999999994,12
0.23864746,0.06890869,0.060791015999999996,-74.87786,27.824427000000004,79.72519,12
0.2593994,0.07592773400000001,0.05657959,-62.343509999999995,33.931297,89.099236,12
0.27020264,0.06927489999999999,0.06304932,-60.55725,48.89313,95.64121999999999,12
0.27020264,0.066467285,0.078125,-40.427483,39.709922999999996,93.52672,12
0.25177002,0.06726074,0.076293945,-33.351147,29.641221999999996,90.03817,12
0.22314453,0.049133300000000005,0.06390381,-45.328243,18.42748,79.28244000000001,12
0.20043945,0.045166015999999996,0.06793213,-80.099236,5.9389315,62.893130000000006,12
0.18475342,0.08013916,0.06756592,-115.69466000000001,-2.1374047000000003,46.687022999999996,12
0.20166016,0.06750488,0.06970215,-104.34351,-14.145039,47.496179999999995,12
0.20831299,0.08300781,0.0725708,-114.900764,-12.572519,45.297709999999995,12
0.23358154,0.09069824,0.08569336,-95.1145,-16.51145,59.0229,12
0.25231934,0.10675049,0.08135986,-87.824425,-11.519084,69.96183,12
0.25671387,0.11871338,0.08325195,-65.48092,-5.5419846,83.33588,12
0.23559570000000005,0.11791992,0.07653808599999999,-42.496179999999995,0.79389316,89.59541999999999,12
0.23992919999999998,0.11395264,0.07006836,-33.755726,10.633588,91.0687,12
0.2668457,0.13604736,0.08026123,-15.282442999999999,17.91603,90.56489,12
0.2984619,0.16436768,0.08319092,7.343511599999999,22.694656,85.35878000000001,12
0.30322266,0.15600586,0.10394287,33.450382,18.190839999999998,71.56489,12
0.29522705,0.12854004,0.12628174,47.503820000000005,1.4732825,43.396946,12
0.29217529999999997,0.08557129,0.105285645,55.21374,-2.5267177000000003,-4.190840000000001,12
0.28186035,0.052978515999999996,0.10052489999999999,28.946565999999997,-4.10687,-55.48855,12
0.27233887,0.078125,0.10675049,-1.8854961,-0.6870229,-84.854965,12
0.28186035,0.08380127,0.11291504,-0.54198474,-15.358779,-102.862595,12
0.30181885,0.11669922,0.12561035,3.961832,-25.625954,-111.10687,12
0.30541992,0.121154785,0.08532715,46.351147,-24.206106,-101.175575,12
0.29022217,0.10461426,0.08258057,93.36641,-24.10687,-89.10687,12
0.25213623,0.07928467,0.08380127,123.59541999999999,-9.21374,-80.19084000000001,12
0.25457764,0.085876465,0.080078125,125.824425,-10.648855000000001,-84.183205,12
0.22766113,0.056274414,0.10412598,147.01527,3.1145039,-94.061066,12
0.22991943,0.03930664,0.08154297,108.03053,-8.496183,-111.175575,12
0.21557617,0.06951904,0.09320068,100.9313,-11.671756,-113.83968999999999,12
0.21148682,0.030212402000000003,0.11035156,94.30534,-32.419846,-114.99236,12
0.21759033,0.040893555,0.11273193,69.0687,-33.46565,-114.0687,12
0.21368408,0.034851073999999996,0.10357666,74.75572,-45.923664,-102.59541999999999,12
0.20111084,0.028625487999999998,0.10113525400000001,43.251907,-42.030533,-95.145035,12
0.19830322,0.031311035,0.10778808599999999,23.748089999999998,-42.435116,-81.80153,12
0.20782470000000003,0.018798828,0.08905029,-3.3282442000000003,-36.870228000000004,-63.84733000000001,12
0.22235107,0.021606445,0.11859131,-26.91603,-34.297709999999995,-54.28244399999999,12
0.21392822,0.03375244,0.10479736,-42.946564,-32.862595,-39.366413,12
0.22418213,0.039123535,0.10253906,-57.206109999999995,-20.977098,-16.206106,12
0.23931885,0.044067382999999995,0.11035156,-61.28244399999999,-14.755725,15.40458,12
0.25061035,0.059204099999999996,0.11138916,-59.23664,-5.7480917,47.992367,12
0.22174072,0.06500244,0.08312988,-50.366413,-0.7251908,71.92367,12
0.22625732,0.07989502,0.06451416,-52.183205,27.740458,93.58015400000001,12
0.25231934,0.08813476599999999,0.05615234400000001,-30.419846999999997,41.76336,105.35113999999999,12
0.2713623,0.07495117,0.08282471,-15.763359,55.52672,109.36641000000002,12
0.2526245,0.051452637,0.0960083,-7.4351144,47.954197,101.27481,12
0.23016357,0.044067382999999995,0.10247803,-12.030535,33.610687,82.64886,12
0.20275879,0.03869629,0.08911133,-30.847328000000005,19.519083,66.39695,12
0.19281006,0.05255127,0.08929443,-65.53435,13.519084,52.725190000000005,12
0.19561768,0.06213379,0.07897949,-89.83206,10.083969,51.221375,12
0.20123291,0.066589355,0.07763672,-88.74809,5.6412214999999994,54.81679499999999,12
0.20538330000000002,0.07244873,0.0793457,-92.0,6.5801525,59.366413,12
0.22924805,0.09039307,0.084106445,-77.58778000000001,5.5114503,75.45038000000001,12
0.24084473,0.10211182,0.06793213,-62.931297,11.396947,97.16794,12
0.2543335,0.11834717,0.064575195,-42.51145,21.633587,115.74808999999999,12
0.24395752,0.113220215,0.06604004,-29.160304999999997,26.190839999999998,119.80153,12
0.23760986,0.12945557,0.06811523400000001,-25.015266,36.46565,120.32825,12
0.26013184,0.140625,0.07385254,-12.732824,39.51145,105.66412,12
0.31896973,0.15252686,0.0803833,12.625955000000001,37.221375,93.16794,12
0.32403564,0.16729736,0.09588623,50.290077000000004,23.93893,74.96947,12
0.30364990000000003,0.13409424,0.11877441400000001,74.0458,2.1984732000000005,44.9771,12
0.2803955,0.07446289,0.12023926,74.71755999999999,-13.175572,-8.145039,12
0.28240967,0.041992188,0.11669922,37.78626,-24.274809,-54.015266000000004,12
0.29699707,0.057006836,0.11242676,10.977099,-35.633587,-102.63359,12
0.30157470000000003,0.059753417999999996,0.13861084,-3.0992367,-54.564884,-121.63358999999998,12
0.31518555,0.08752441400000001,0.12158203,-33.160305,-62.83969499999999,-134.16794,12
0.30303955,0.13098145,0.08258057,-15.297709,-59.83206,-120.70228999999999,12
0.27746582,0.12261963,0.07086182,31.854961,-31.801527,-91.57252,12
0.25817870000000004,0.10485839999999998,0.061950684000000006,78.16794,-7.9465647,-76.61069,12
0.25250244,0.10314941400000001,0.06341553,130.17557,2.6488549999999997,-60.648853,12
0.23059082,0.06536865,0.07763672,185.81679,2.6183207000000004,-55.77099200000001,12
0.20794678,0.033569336,0.08996582,153.69466,0.21374045,-77.08397,12
0.2088623,0.05029297,0.12139892599999999,140.06107,-13.793892999999999,-89.23664000000001,12
0.22595215,0.028320312,0.11169433599999999,115.65648999999999,-39.587788,-100.60305,12
0.22882080000000002,0.02520752,0.109375,69.44275,-58.030533,-111.28244,12
0.21832275,0.03137207,0.09576416,50.809162,-63.47328,-112.78626000000001,12
0.22894287,0.1083374,0.29943848,-1.259542,2.4961832000000004,-4.2290077,12
0.22833252,0.11193848,0.3027954,1.2137405,-1.1450381,-3.4351146,12
0.22631836,0.10491943,0.12982178,0.14503817,0.9465648999999999,-2.2824428,12
0.21820068,0.09716797,0.06439209,-0.96183205,3.0152671000000004,-1.0992366000000002,12
0.23455810000000002,0.11193848,0.26757812,0.70229006,1.038168,-2.3358779999999997,12
0.2300415,0.109191895,0.33544922,1.1297709999999999,2.7251909,-1.3587786,12
0.23541260000000003,0.1071167,0.28692627,-1.0992366000000002,0.46564886,-2.557252,12
0.21893310000000002,0.10827637,0.115112305,0.07633588,0.5954198,-2.183206,12
0.21319580000000002,0.10675049,0.30944824,1.8931297999999999,3.0992367,-2.3206108,12
0.22595215,0.11138916,0.18353271,2.793893,2.091603,-3.9770992,12
0.22515869,0.111450195,0.3251953,0.35114503,2.5114503,-3.351145,12
0.22680664,0.10784912,0.27496338,-1.1679389999999998,1.2290076,-0.8702290000000001,12
0.22943115,0.104003906,0.28503418,-1.1145038999999999,1.648855,-1.8473282,12
0.22540283,0.11260986,0.26385498,0.9847328000000002,2.0,-2.1908397999999996,12
0.22839355,0.10614014,0.35516357,-0.03816794,2.610687,-3.076336,12
0.22332764,0.104003906,0.17590332,-1.0763359,1.4656489,-0.17557251,12
0.22845459,0.10369873,0.11956787,-1.0152671,0.70229006,-1.7404580000000003,12
0.22467041,0.10620117,0.3302002,2.183206,1.7251908999999999,-1.961832,12
0.22827148,0.107299805,0.31170654,1.2290076,1.7709924,-1.4656489,12
0.23193360000000002,0.10644531,0.27850342,1.4274809,0.5114504,-0.6183206,12
0.22491455,0.10284424,0.26843262,0.55725193,0.9236641,0.47328246,12
0.22003174,0.111450195,0.28582764,3.0458016,1.4427481000000002,-0.38167940000000006,12
0.22827148,0.106933594,0.27001953,-0.045801528,1.3358778999999998,-2.6564887,12
0.22229004,0.11169433599999999,0.12390137,0.9847328000000002,3.4198472,-1.961832,12
0.22613525,0.11224365,0.30389404,1.0076336,1.351145,-2.7480917000000002,12
0.22351074,0.105285645,0.34124756,-1.389313,0.23664123,-4.9770994,12
0.21887207,0.10894775400000001,0.29595947,-0.41984734,-1.3435115,-2.5496182000000003,12
0.22369385,0.1003418,0.16143799,-0.9694656999999999,0.49618322,-3.1526718,12
0.22839355,0.11090088,0.317688,1.3053435,0.15267175,-2.9541984,12
0.22479248,0.10180664,0.11248779,0.48854962,1.0076336,-2.3969467,12
0.22735596,0.10479736,0.30078125,0.31297709999999995,0.70229006,-2.7862597,12
0.21466064,0.10406494,0.09197998,0.49618322,1.4198473999999999,-2.2824428,12
0.2230835,0.11059569999999999,0.38757324,2.9007633,1.5267175,-0.71755725,12
0.21972656,0.11090088,0.26971436,-2.1755726,0.32061067,-2.793893,12
0.22521973,0.10620117,0.17669678,0.36641222,0.114503816,-2.1755726,12
0.22241211,0.10986328,0.31311035,-0.129771,1.0763359,-4.2900763,12
0.21832275,0.11187744,0.3480835,-0.38931298,1.8473282,-1.2061069,12
0.22039795,0.105651855,0.11169433599999999,-0.32824427,-0.22137405,-1.8396946,12
0.22363281,0.11065674,0.30981445,-0.030534351,1.2977100000000001,-2.4885497,12
0.21905518,0.10876465,0.3189087,1.1297709999999999,1.4656489,-3.6564887,12
0.22772217,0.10827637,0.057800292999999996,-0.36641222,0.99236643,-2.4885497,12
0.22167969,0.11126709,0.27410890000000004,1.5877863,0.32061067,-4.7175574000000005,12
0.22479248,0.10595703,0.22430419999999998,-0.6183206,0.610687,-2.9160306,12
0.23175049,0.11004639,0.38964844,0.259542,0.64122134,-4.442748,12
0.222229,0.10705566400000001,0.30584717,-1.4122137,-1.8320610000000002,-5.2061067,12
0.22363281,0.11285400400000001,0.36486816,0.39694658,1.091603,-4.5725193,12
0.22515869,0.11425781,0.3147583,-0.53435117,1.0687023,-4.7328243,12
0.22436523,0.10784912,0.38500977,-0.60305345,1.0839695,-2.5419848,12
0.21673584,0.10510254,0.33129883,-0.6335878,2.0305343000000002,-5.3587785000000006,12
0.21704102,0.10229492,0.19787598,-3.5114503,-1.6183206,-3.9160306000000005,12
0.22589111,0.10644531,0.39923096,-2.572519,2.0610688,-5.8320612999999994,12
0.22521973,0.10784912,0.24530029999999997,-0.6488550000000001,-0.28244275,-5.6412214999999994,12
0.21612549,0.101501465,0.21026611,-0.8015267,-0.6259541999999999,-5.3893127,12
0.21704102,0.10888672,0.10815430000000001,-5.2290077,0.35877863,-3.7633588,12
0.22381592,0.1038208,0.36376953,-3.923664,0.519084,-3.465649,12
0.21801758,0.10614014,0.31463623,-3.29771,1.5572518999999998,-2.6793892,12
0.22143555,0.107299805,0.34979248,-0.8244275,0.99236643,-1.7786259999999998,12
0.22332764,0.10473633,0.3180542,0.18320611,1.0229008,-1.8702290000000001,12
0.22229004,0.10845947,0.39099120000000004,-2.0839694,2.206107,-0.86259544,12
0.22076416,0.10430908,0.2909546,-0.9312976999999999,-1.2519083999999998,-3.4122138,12
0.22558594,0.10809326,0.29052734,0.38167940000000006,0.7099236999999999,-1.9923664,12
0.21911621,0.105651855,0.322937,-1.6030535,0.13740458,-1.7633588,12
0.22180176,0.10577392599999999,0.36297607,-2.70229,1.4274809,-2.2595419999999997,12
0.22015381,0.10968017599999999,0.3336792,-1.5496184,0.6183206,-4.0992365,12
0.21807861,0.10583496,0.23077393,-0.3053435,1.0305344,-4.8015265,12
0.21649169999999998,0.10913086,0.3428955,-0.35877863,1.9083970000000001,-3.2595419999999997,12
0.21740723,0.104003906,0.30224609999999996,-1.8854961,2.7328243,-4.5496182,12
0.22058105,0.10412598,0.3095703,-0.23664123,0.6946565,-5.2671757,12
0.2220459,0.10748291,0.2672119,-0.015267176,2.2748091,-4.374046,12
0.22076416,0.103027344,0.12506104,-2.4351146,1.9465648999999998,-2.6412212999999998,12
0.21759033,0.11053467,0.29174805,0.6259541999999999,2.0,-3.6259542000000002,12
0.22045898,0.10369873,0.33319092,-0.39694658,0.8549618,-4.053435299999999,12
0.22302246,0.1171875,0.08807373,-0.29007635,-0.6793893,-3.5648854,12
0.21936035,0.10809326,0.12817383,-2.5419848,1.1145038999999999,-3.648855,12
0.21807861,0.101623535,0.28198242,-3.4885497,2.3282442000000003,-4.587786,12
0.22686768,0.11358642599999999,0.33380127,-1.2061069,1.0534351,-3.0229008,12
0.23248291,0.11151123,0.3302002,-1.4503816,-0.114503816,-3.0152671000000004,12
0.22845459,0.10388183599999999,0.14349365,-2.7404580000000003,-1.0458015,-4.0,12
0.23022461,0.10925293,0.29724120000000004,-4.5496182,-1.0229008,-4.1297708,12
0.22631836,0.10571289,0.17736816,-3.4351146,-1.091603,-4.0839696000000005,12
0.22259521,0.10900879,0.28759766,-1.6641221000000002,1.1832061000000003,-3.923664,12
0.22137451,0.11236572,0.29919434,-1.038168,1.6030535,-5.5496182,12
0.23400879,0.1071167,0.33337402,-2.7557251,2.091603,-4.091603299999999,12
0.22167969,0.10998535,0.31524658,-2.9541984,3.1984732000000005,-5.145038,12
0.22949219,0.10620117,0.31469727,-2.4580152,0.7099236999999999,-4.183206,12
0.2244873,0.10668945,0.20922852,-1.2900764,3.1526718,-3.465649,12
0.22998047,0.11035156,0.37255859999999996,-1.9694656000000004,1.4045801000000002,-4.7480917,12
0.22454834,0.11608887,0.23034668,-0.8778626,0.35877863,-1.8320610000000002,12
0.22351074,0.10864258,0.28771973,-2.7633588,1.9465648999999998,-3.832061,12
0.22363281,0.11425781,0.25769043,-2.2519082999999998,1.8778626,-2.9770992,12
0.21307373,0.105529785,0.09417724599999999,-2.0610688,0.0,-4.6183205,12
0.23382568,0.111206055,0.32440186,-0.8015267,2.9007633,-1.3358778999999998,12
0.23168945,0.10559082,0.30236816,-5.3587785000000006,3.1145039,-2.2290077,12
0.22296143,0.11413574,0.26940918,-0.48854962,2.427481,-3.40458,12
0.21594238,0.09649658,0.14691162,2.0229008,0.48091602,-0.9236641,12
0.21630860000000002,0.11035156,0.2994995,-0.9465648999999999,0.6946565,-2.206107,12
0.21697998,0.101623535,0.22937012,-0.6793893,1.6335878000000001,-3.8549618999999997,12
0.22344970000000003,0.11254883,0.10821533,-0.53435117,0.15267175,-3.3358779999999997,12
0.21417236,0.11077881,0.17144775,-0.9312976999999999,-0.16793893,-3.7404580000000003,12
0.22576904,0.10504150400000001,0.31689453,-0.8015267,0.73282444,-3.946565,12
0.22747803,0.10974121,0.28149414,-0.519084,1.5725191,-3.2290077,12
0.22747803,0.10894775400000001,0.31634520000000005,-2.3358779999999997,0.7251908,-4.7328243,12
0.22619629,0.10656738,0.30249023,-1.4274809,0.129771,-1.3358778999999998,12
0.23071289,0.11193848,0.11389160000000002,3.5419848,-1.4274809,-1.1221374,12
0.22943115,0.10852051,0.34143066,-2.221374,1.038168,-3.0839694,12
0.22375488,0.10858154,0.20690918,1.2290076,0.21374045,-3.4351146,12
0.22174072,0.10430908,0.113098145,1.4580153,1.5114504,-3.0839694,12
0.21435547,0.1071167,0.29608154,0.73282444,0.129771,-3.3664122000000005,12
0.22247314,0.11242676,0.14172363,-0.48854962,0.71755725,-1.9007633999999998,12
0.22393799,0.10559082,0.30517578,1.9541985,0.8091603,-2.3435113,12
0.22210693,0.10998535,0.43139648,0.79389316,2.480916,-2.2900763,12
0.21026611,0.10607910000000002,0.15533447,-0.2519084,0.31297709999999995,-2.610687,12
0.22283936,0.1161499,0.3619995,0.10687023,1.8015267,-3.0305343,12
0.21844482,0.10516357400000001,0.30944824,-0.7099236999999999,3.4961832000000004,-3.4351146,12
0.22210693,0.11108398400000001,0.29302979999999995,0.20610687,1.9923664,-4.3511453,12
0.23028564,0.10437012,0.305542,1.2519083999999998,1.1526718,-3.5496182000000003,12
0.21258545,0.110839844,0.06341553,0.8778626,1.480916,-0.22900763,12
0.22149658,0.10882568,0.36083984,-0.71755725,2.7557251,-2.6335877999999995,12
0.22369385,0.10516357400000001,0.33056640000000004,0.32824427,0.5038168,-4.4656487,12
0.22503662,0.11029053,0.32281494,-1.4885496,1.4351145,-3.6717557999999997,12
0.21893310000000002,0.11499023400000001,0.3026123,-0.8778626,-0.52671754,-3.3435113,12
0.22003174,0.113342285,0.3139038,-0.129771,1.961832,-3.3587787000000002,12
0.22637939999999998,0.10888672,0.13665771,1.3816794,1.0992366000000002,-4.1984735,12
0.22784424,0.11065674,0.35925293,-2.29771,2.2595419999999997,-4.374046,12
0.21844482,0.107910156,0.24310303,0.8702290000000001,2.6946564,-3.038168,12
0.22186279999999997,0.10748291,0.32861328,-2.5038167999999996,2.129771,-4.412214,12
0.22290039,0.103637695,0.32885742,0.6488550000000001,1.3206106000000002,-2.7251909,12
0.21246338,0.10980224599999999,0.13244629,1.2748091000000001,2.8931298,-2.442748,12
0.21807861,0.10510254,0.11328125,1.1374046,1.1450381,-2.6259542000000002,12
0.22564697,0.1003418,0.12609863,-2.3053436,1.3435115,-3.2290077,12
0.21331787,0.11169433599999999,0.13134766,-1.3129771000000001,0.67175573,-3.2442749,12
0.21478271,0.10125732400000001,0.119628906,-0.3053435,1.4274809,-1.8320610000000002,12
0.21118164,0.10614014,0.17279053,-1.8320610000000002,1.9389313000000001,-2.687023,12
0.21862793,0.10443115,0.17553711,-2.480916,0.15267175,-2.0687022,12
0.21691895,0.10858154,0.32177734,-0.9847328000000002,-1.6870228999999999,-4.5114503,12
0.21789551,0.11114502,0.27227783,-1.8473282,0.08396947,-3.923664,12
0.21704102,0.10803223,0.33428955,-2.427481,1.1908396,-5.0,12
0.21588135,0.1071167,0.34375,-1.8549619,1.0763359,-4.2442746,12
0.21173096,0.103515625,0.17047119,-1.5496184,-1.1603054,-2.687023,12
0.21368408,0.11193848,0.26733398,-3.2900763,0.03816794,-3.5419848,12
0.22253418,0.1083374,0.09637451,-3.351145,1.6793894,-3.1526718,12
0.21966553,0.10632324,0.39257812,0.5954198,2.0992367,-2.2671757,12
0.22344970000000003,0.10870361,0.17163086,-3.8778627,2.6412212999999998,-3.4580152,12
0.22576904,0.11828613,0.16009521,-1.5725191,2.038168,-2.0305343000000002,12
0.21478271,0.113098145,0.07006836,0.7099236999999999,2.0687022,-3.1526718,12
0.22509766,0.11303711,0.28277588,1.1145038999999999,1.9541985,-2.9389312000000003,12
0.22784424,0.10784912,0.2571411,0.39694658,4.4885497,-3.9312977999999994,12
0.21405029999999997,0.11505127,0.291687,1.6946564999999998,1.9389313000000001,-2.9160306,12
0.22406006,0.11706543,0.31524658,1.259542,1.259542,-3.5114503,12
0.22210693,0.09893799,0.09887695,2.3511450000000003,2.4580152,-2.465649,12
0.23516846,0.11053467,0.29467773,2.312977,0.6946565,-2.0610688,12
0.22430419999999998,0.099487305,0.12036133,-2.9160306,1.3664121999999999,-2.3206108,12
0.22259521,0.11633301,0.20715332,-2.076336,-0.66412216,-2.7099237,12
0.22113037,0.11413574,0.17346191,-3.3435113,0.007633588,-2.389313,12
0.21881104,0.111206055,0.33984375,-2.3587787000000002,-1.480916,-3.1450381000000003,12
0.2208252,0.10272217,0.20556639999999998,-7.541984599999999,-1.4122137,-2.1145039,12
0.21771239999999997,0.113220215,0.13256836,-2.3358779999999997,-0.6946565,-2.076336,12
0.22491455,0.11596680000000001,0.32751465,0.21374045,1.6259542,-0.6793893,12
0.22650146,0.1071167,0.3499756,-3.8473281999999998,-0.35114503,-1.7709924,12
0.23077393,0.11090088,0.29986572,-0.6488550000000001,-0.90076333,-2.6946564,12
0.21789551,0.105407715,0.22814941,0.06870229,-0.29007635,-2.312977,12
0.22406006,0.10491943,0.08636474599999999,-2.2595419999999997,-1.5648855,-2.076336,12
0.22564697,0.10766601599999999,0.3279419,2.7709923,2.7328243,-1.2977100000000001,12
0.21398926,0.105285645,0.20733643,1.5114504,2.3435113,-2.4351146,12
0.22174072,0.11389160000000002,0.20806885,2.6946564,1.4198473999999999,-1.7938931,12
0.22369385,0.10882568,0.24456787,2.4198472,-0.03816794,-1.9312977,12
0.21087646,0.11529541,0.059265137,2.4961832000000004,-0.16793893,-1.9923664,12
0.21740723,0.11846924,0.19451904,1.8396946,-1.0,-2.183206,12
0.23596191,0.11480713,0.31048584,4.343511599999999,-0.33587787,-2.0458016,12
0.21661377,0.11608887,0.36743164,1.9694656000000004,2.3511450000000003,-2.8244274,12
0.21411133,0.101379395,0.12554932,2.5954200000000003,1.8015267,-2.442748,12
0.2322998,0.105651855,0.32739258,-2.7404580000000003,0.52671754,-4.0076336999999995,12
0.21386719,0.10760498,0.23419189999999998,2.389313,0.45801526,-4.038168,12
0.21740723,0.11291504,0.16741943,-2.6335877999999995,1.0076336,-2.8549618999999997,12
0.22186279999999997,0.110839844,0.2956543,1.3282443000000002,1.8931297999999999,-3.778626,12
0.22052002,0.11059569999999999,0.34173584,-0.22900763,2.0458016,-4.5114503,12
0.22735596,0.10949707,0.26879883,-1.7175573,-0.3740458,-5.152672,12
0.20904541,0.11383057,0.11328125,-2.0229008,0.8244275,-3.6641220000000003,12
0.22027588,0.11303711,0.32775879999999996,-0.10687023,1.9236640999999999,-3.3435113,12
0.22436523,0.11285400400000001,0.10974121,-1.4732825,0.60305345,-3.6717557999999997,12
0.22131348,0.10961914,0.3466797,0.4427481,1.4885496,-3.6183207000000004,12
0.22338867,0.10772705,0.35351562,1.038168,-0.19847329,-2.5114503,12
0.21917725,0.1161499,0.15777588,2.2442749,0.41221374,-2.5114503,12
0.22320557,0.10443115,0.14086914,1.7938931,1.6259542,-2.9007633,12
0.22155762,0.11065674,0.36956787,1.1145038999999999,0.08396947,-4.0,12
0.21917725,0.101745605,0.3416748,-1.4122137,0.259542,-2.4198472,12
0.22717285,0.11151123,0.27276609999999996,-2.312977,-1.7175573,-3.7557251000000003,12
0.22357178,0.113098145,0.32836914,1.8931297999999999,-0.28244275,-2.2290077,12
0.21936035,0.103637695,0.19018555,3.465649,0.22900763,-1.3053435,12
0.21496582,0.10510254,0.28198242,-0.18320611,-0.48854962,-2.091603,12
0.21801758,0.11981201,0.10064697,0.4274809,-0.36641222,-0.52671754,12
0.21429443,0.10443115,0.171875,5.9923663000000005,-1.2442749,-0.83206105,12
0.21777344,0.1104126,0.18029785,2.389313,-2.3206108,0.0,12
0.22015381,0.11047363,0.24877929999999995,13.358779,-6.9923663000000005,3.8167940000000002,12
0.22436523,0.10430908,0.23779297,11.488549,-9.328244,3.183206,12
0.22821045,0.11102295,0.33892822,7.5114503,-9.053435,1.5343511,12
0.21807861,0.09967041,0.22515869,3.465649,-8.961832000000001,1.3053435,12
0.22528076,0.10906982400000001,0.30541992,2.1908397999999996,-7.2442746,-2.4198472,12
0.2208252,0.10644531,0.29437256,6.0229006,-4.0,0.6793893,12
0.22424316,0.10504150400000001,0.30822754,2.29771,-3.0229008,1.5496184,12
0.2232666,0.10961914,0.38653564,3.129771,-4.8244276,0.49618322,12
0.22155762,0.10852051,0.33007812,-0.8549618,-4.2519083,0.29007635,12
0.22271729,0.11126709,0.30249023,1.3969465,-2.3358779999999997,-1.0305344,12
0.21331787,0.113098145,0.058410645,4.396946400000001,-0.57251906,-0.03816794,12
0.22839355,0.11016846,0.31878662,3.4503817999999997,-0.099236645,-0.41221374,12
0.21929932,0.1003418,0.09222412,5.7175574000000005,-2.0305343000000002,-0.610687,12
0.22546387,0.10675049,0.324646,3.534351,-2.1068702,-0.2977099,12
0.22180176,0.11596680000000001,0.25579834,6.2290077,-4.8015265,1.221374,12
0.22387695,0.097595215,0.37329102,-0.08396947,-0.19847329,0.5801527,12
0.22875977,0.105285645,0.17309570000000002,0.2977099,-2.8396947,-1.3358778999999998,12
0.22833252,0.10296631,0.36157227,-0.519084,1.351145,-0.5648854999999999,12
0.22503662,0.10070801,0.11968994,3.1221373,0.26717559,-0.35114503,12
0.22296143,0.10583496,0.31237793,-1.1068702,-2.4198472,-3.70229,12
0.22302246,0.10119629,0.2675171,0.122137405,-0.6870229,-2.70229,12
0.21856689999999998,0.11364746,0.068847656,-2.2900763,0.36641222,-2.1603053,12
0.22534179999999995,0.10327148400000001,0.15441895,5.7328243,-3.6106870000000004,-0.10687023,12
0.22674560000000002,0.10479736,0.09899902,2.8396947,-1.6946564999999998,1.9007633999999998,12
0.22998047,0.10211182,0.2298584,-0.28244275,-2.8396947,-0.22900763,12
0.23529053,0.10461426,0.19763184,-0.08396947,0.007633588,-1.221374,12
0.22174072,0.1171875,0.26898193,-0.8549618,2.0305343000000002,-2.6183207000000004,12
0.23168945,0.0949707,0.26013184,0.14503817,4.2977099999999995,-2.870229,12
0.23339844,0.11236572,0.09411621,4.091603299999999,2.3587787000000002,-1.8625953999999998,12
0.22332764,0.1083374,0.29974365,1.4885496,1.389313,-4.5496182,12
0.22930908,0.11151123,0.27709959999999995,-0.6183206,1.7404580000000003,-2.2137403,12
0.21478271,0.10473633,0.3340454,0.45038167,1.9847328999999998,-5.2519083,12
0.23101807,0.11138916,0.34240723,0.3740458,4.3129773,-4.587786,12
0.22961426,0.10723877,0.26013184,-0.6335878,5.236641400000001,-5.2290077,12
0.22924805,0.10430908,0.11077881,-1.9694656000000004,6.603053599999999,-5.8015265,12
0.23828125,0.12487793,0.33374023,-3.4274809999999998,5.625954,-6.1984735,12
0.23333739999999997,0.10345459,0.11425781,10.305344,3.6717557999999997,-0.740458,12
0.22705078,0.101623535,0.32305908,1.9160305,1.7251908999999999,-1.9694656000000004,12
0.22943115,0.11553955,0.15649414,3.4732822999999997,0.90076333,-1.480916,12
0.22686768,0.10815430000000001,0.32806396,2.9007633,1.8854961,-2.7633588,12
0.23413086,0.10290527,0.2510376,7.396946400000001,0.36641222,-1.0839695,12
0.23138428,0.10504150400000001,0.31622314,4.6412214999999994,0.9694656999999999,-2.1068702,12
0.23046875,0.10272217,0.21392822,1.9083970000000001,1.0610687,-1.8625953999999998,12
0.21582031,0.1026001,0.17797852,1.3435115,2.8778627,-2.5648854,12
0.22814941,0.10198974599999999,0.09655762,1.8244275,0.53435117,-1.6030535,12
0.22900389999999998,0.10870361,0.2876587,0.022900764,2.480916,-3.076336,12
0.22088623,0.1104126,0.2576294,1.3358778999999998,1.4198473999999999,-2.129771,12
0.22436523,0.10534668,0.06610107400000001,-1.3206106000000002,4.519083999999999,-1.4580153,12
0.22332764,0.10760498,0.31011963,2.2900763,2.442748,-4.3129773,12
0.22766113,0.10827637,0.15527344,1.2519083999999998,0.13740458,-1.70229,12
0.22271729,0.11352539,0.24664307,3.1526718,1.259542,-3.648855,12
0.22595215,0.10607910000000002,0.111450195,8.473283,2.8625952999999997,-2.5267177000000003,12
0.23455810000000002,0.10675049,0.32128906,-0.16793893,1.6335878000000001,-3.0687022,12
0.22753906,0.10424805,0.30334473,2.1450381000000003,0.45801526,-3.465649,12
0.2300415,0.10998535,0.30395508,-1.6030535,1.2061069,-3.3893129999999996,12
0.23266602,0.10626221,0.26428223,-2.3664122000000005,3.8167940000000002,-3.6870230000000004,12
0.22045898,0.10168457,0.21374512,-1.4351145,4.328244000000001,-4.4274807,12
0.22045898,0.11468506,0.22845459,-1.8549619,3.183206,-3.6106870000000004,12
0.22888184,0.09808349599999999,0.3081665,4.053435299999999,3.221374,-1.8854961,12
0.22509766,0.10229492,0.11047363,-4.2442746,0.7251908,-4.374046,12
0.22637939999999998,0.10949707,0.05218506,-1.648855,0.8015267,-2.5114503,12
0.22839355,0.11169433599999999,0.29504395,-1.0152671,1.6412214,-2.3816792999999996,12
0.22674560000000002,0.10913086,0.08422851599999999,-5.10687,1.0839695,-2.2137403,12
0.22955322,0.09655762,0.27410890000000004,2.8244274,3.2442749,-2.0,12
0.22723389,0.10101318,0.23577881,-6.374046,1.2137405,-3.6183207000000004,12
0.21942139,0.11090088,0.11389160000000002,-0.122137405,2.3358779999999997,-3.0076337000000004,12
0.22619629,0.10546875,0.22131348,-3.4427480000000004,3.6183207000000004,-2.2748091,12
0.2232666,0.10357666,0.30303955,-0.38931298,2.923664,-4.6488547,12
0.22137451,0.10131836,0.15551758,-2.687023,2.29771,-1.648855,12
0.22961426,0.10223389,0.09869385,1.221374,-0.3053435,-3.183206,12
0.22320557,0.106933594,0.26867676,-3.7328242999999994,-0.8549618,-3.7709922999999996,12
0.22595215,0.1003418,0.19830322,-3.6641220000000003,0.5648854999999999,-3.9389312000000007,12
0.22778320000000005,0.10632324,0.17852783,-1.8549619,2.0229008,-3.351145,12
0.22277832,0.106933594,0.27105713,-0.022900764,1.259542,-2.9007633,12
0.22784424,0.10656738,0.20947266,-0.67175573,2.1755726,-3.6412212999999998,12
0.22344970000000003,0.09790039,0.10949707,-3.7557251000000003,1.0076336,-1.8549619,12
0.23156738,0.10406494,0.11407471,1.0458015,-5.038168,-3.923664,12
0.22253418,0.10522461,0.27758790000000005,4.3893127,-2.8778627,-2.6564887,12
0.22296143,0.09375,0.14721679999999998,-5.221374,0.9312976999999999,-5.259542,12
0.22827148,0.10321045,0.09307861,0.97709924,-0.46564886,-3.5267177000000003,12
0.22686768,0.10479736,0.37396240000000003,2.3511450000000003,0.55725193,-2.3587787000000002,12
0.22174072,0.10406494,0.14959717,0.32061067,-3.4961832000000004,-3.5496182000000003,12
0.22454834,0.10375976599999999,0.31433105,-1.0458015,-1.8396946,-4.0992365,12
0.21655273,0.10620117,0.28564453,-1.6870228999999999,-3.0152671000000004,-4.2748094000000005,12
0.21807861,0.10473633,0.059631348,-6.0992365,-3.0152671000000004,-4.0229006,12
0.22552489999999997,0.11297607400000001,0.15216064,-6.4198474999999995,-1.0610687,-7.3053436000000005,12
0.21331787,0.10498047,0.25024414,-0.022900764,-0.129771,-5.671755999999999,12
0.21929932,0.10815430000000001,0.11676025400000001,-3.0076337000000004,2.1145039,-4.6106873,12
0.21929932,0.10168457,0.13153076,1.1526718,3.9389312000000007,-2.9923662999999996,12
0.22131348,0.10717773400000001,0.33654785,0.33587787,2.0992367,-3.2824428,12
0.22644043,0.10614014,0.31817627,0.22900763,2.4580152,-3.7251909,12
0.22637939999999998,0.10687256,0.11602783,-0.45038167,0.9541985000000001,-3.4274809999999998,12
0.23272705,0.10333252,0.105651855,-2.7251909,2.465649,-4.5801525000000005,12
0.22674560000000002,0.10681152,0.34887695,1.5419847,1.8244275,-2.946565,12
0.22375488,0.10949707,0.21405029999999997,-0.48854962,2.0458016,-3.3969467000000004,12
0.22375488,0.099731445,0.09906006,0.7099236999999999,1.5496184,-3.0,12
0.22717285,0.10357666,0.25378418,-2.1221373,4.3893127,-4.1679387000000006,12
0.22949219,0.109375,0.048828125,-1.9236640999999999,1.1908396,-2.8473282,12
0.22644043,0.10058594,0.13372803,-3.1068702,1.4961832,-3.351145,12
0.22338867,0.10681152,0.14959717,0.6793893,1.0763359,-1.8473282,12
0.22821045,0.10321045,0.08618164,-1.3587786,2.8854961,-2.9923662999999996,12
0.22143555,0.107543945,0.10839844,-4.2977099999999995,2.908397,-5.961832,12
0.22711182,0.11389160000000002,0.31237793,-2.4961832000000004,3.6335877999999995,-6.480916000000001,12
0.22467041,0.10345459,0.062316895,-1.3435115,2.3587787000000002,-3.0,12
0.22515869,0.100097656,0.28839109999999996,-2.2137403,0.6183206,-2.961832,12
0.23181152,0.11682129,0.13354492,-6.1297708,0.6946565,-2.9770992,12
0.22729492,0.11224365,0.23693848,-2.870229,1.7709924,-3.2366412,12
0.23529053,0.103515625,0.29345703,-4.190840000000001,3.3206108,-5.1984735,12
0.21936035,0.10925293,0.30200195,-1.3816794,4.519083999999999,-3.6870230000000004,12
0.22473145,0.103515625,0.32159424,2.610687,4.2137402999999996,-3.0152671000000004,12
0.23193360000000002,0.10418701,0.0423584,-0.41984734,3.351145,-3.793893,12
0.23352051,0.10974121,0.20532227,0.259542,1.3282443000000002,-3.9389312000000007,12
0.21453857,0.109191895,0.15783691,-1.7251908999999999,1.0610687,-4.374046,12
0.22741699,0.10284424,0.30194092,-0.49618322,1.9923664,-3.59542,12
0.23199463,0.10516357400000001,0.12750244,-0.9847328000000002,1.0763359,-3.793893,12
0.22766113,0.10858154,0.27075195,0.52671754,1.1526718,-4.0,12
0.2220459,0.113098145,0.3123169,-1.221374,1.3969465,-5.5114503,12
0.22521973,0.10815430000000001,0.3414917,-1.8778626,1.9770991999999998,-3.5572519999999996,12
0.22631836,0.10522461,0.17150879,-1.1068702,-0.2977099,-4.7709923,12
0.22943115,0.107543945,0.34503174,-3.2671757,0.6183206,-3.3358779999999997,12
0.21728516,0.11242676,0.22705078,-2.1374047000000003,3.9160306000000005,-4.183206,12
0.22375488,0.11279297,0.17486572,1.4122137,2.9847328999999996,-5.7328243,12
0.22106934,0.10675049,0.12200928,-1.4656489,3.3816792999999996,-4.4656487,12
0.22155762,0.10876465,0.17211914,-3.8778627,2.7328243,-5.2442746,12
0.22851562,0.10760498,0.31762695,-1.2824427,3.3587787000000002,-4.5038165999999995,12
0.22558594,0.11828613,0.18707275,-3.4503817999999997,1.2824427,-5.625954,12
0.21502686,0.11065674,0.300354,-3.2824428,1.0458015,-5.763358599999999,12
0.2265625,0.11419678,0.24237060000000002,-3.3740457999999998,3.4122138,-6.4580154,12
0.22192383,0.11071777,0.31994629999999996,-2.793893,2.3740457999999998,-7.206106699999999,12
0.21575928,0.10595703,0.21746826,-7.3587785000000006,3.6564887,-8.160305000000001,12
0.22784424,0.117248535,0.07061767599999999,-5.396946400000001,2.4885497,-7.763358599999999,12
0.21661377,0.1083374,0.21398926,-3.0992367,1.7938931,-5.5648856,12
0.22357178,0.11175537,0.13885498,-2.2671757,1.0229008,-6.1755724,12
0.2220459,0.110839844,0.37573242,-2.816794,2.0458016,-3.2366412,12
0.22113037,0.10906982400000001,0.13623047,-0.29007635,2.6259542000000002,-3.6946564,12
0.22698975,0.10296631,0.29150390000000004,0.41984734,2.5648854,-3.6793892,12
0.22186279999999997,0.11444092,0.35754395,1.0534351,2.793893,-1.2671756,12
0.2208252,0.11450195,0.30633545,1.259542,2.6335877999999995,-2.4732822999999997,12
0.22497559,0.10333252,0.10467529,-4.2900763,1.8320610000000002,-1.9465648999999998,12
0.22576904,0.10913086,0.3378296,-1.4503816,2.572519,-0.53435117,12
0.22772217,0.107421875,0.31121826,0.34351146,3.8244274,-1.5343511,12
0.22088623,0.109375,0.31762695,-2.9694657,0.8702290000000001,-2.2137403,12
0.21362305,0.11212158,0.06097412,-2.1145039,1.4503816,-0.8015267,12
0.22125244,0.10974121,0.33227540000000005,-3.183206,3.2442749,-2.908397,12
0.21643066,0.10687256,0.31304932,-0.86259544,3.1450381000000003,-1.5419847,12
0.22198486,0.10968017599999999,0.3857422,-3.3206108,1.8473282,-1.9847328999999998,12
0.22180176,0.11267089999999998,0.35540770000000005,-1.8854961,2.1603053,-1.9312977,12
0.22253418,0.111328125,0.3024292,-2.0687022,1.6564884999999998,-2.3358779999999997,12
0.21734619,0.11071777,0.20495605,0.28244275,1.1297709999999999,-2.3206108,12
0.2208252,0.10522461,0.31585693,-0.9160305000000001,0.32824427,-3.1984732000000005,12
0.21911621,0.10797119,0.30041504,1.0,-0.5038168,-1.5801526000000001,12
0.21942139,0.114746094,0.3619995,-2.8396947,0.35114503,-1.9236640999999999,12
0.22680664,0.10845947,0.26550293,-0.030534351,2.5419848,-1.4351145,12
0.22277832,0.11004639,0.2672119,1.4198473999999999,1.5114504,-2.557252,12
0.215271,0.10534668,0.26470947,-2.9160306,-0.10687023,-5.854962,12
0.22009277,0.10803223,0.30755615,-0.48091602,0.58778626,-4.59542,12
0.22552489999999997,0.10992432,0.39483643,-4.40458,1.3969465,-3.3816792999999996,12
0.22351074,0.11358642599999999,0.39111328,-3.6183207000000004,1.0305344,-2.6564887,12
0.23156738,0.11657715,0.30364990000000003,-0.8167939000000001,0.015267176,-3.3053436,12
0.21618652,0.09478760000000001,0.08459473,-2.0305343000000002,0.5496183000000001,-3.3740457999999998,12
0.21942139,0.10803223,0.13079834,1.7709924,-0.66412216,-2.2748091,12
0.21789551,0.111816406,0.08813476599999999,2.610687,1.2671756,-2.3969467,12
0.21771239999999997,0.1015625,0.11895752,3.6946564,0.70229006,-1.091603,12
0.22729492,0.11975098,0.27758790000000005,1.6946564999999998,-0.19083970000000003,-2.5801528,12
0.22070312,0.11468506,0.33703613,1.8549619,1.9007633999999998,-2.427481,12
0.22991943,0.11956787,0.24511719,2.9312978,0.43511450000000007,-2.778626,12
0.23583984,0.10900879,0.27178955,-0.20610687,1.5343511,-2.5496182000000003,12
0.23120117,0.104003906,0.25646973,-0.97709924,1.038168,-3.9541983999999997,12
0.21887207,0.11419678,0.19006348,1.6183206,0.114503816,-5.7328243,12
0.22882080000000002,0.12036133,0.31982422,-0.9236641,2.1374047000000003,-3.7175572,12
0.21319580000000002,0.11267089999999998,0.09478760000000001,-4.847328,-1.6946564999999998,-2.7175572,12
0.22235107,0.10925293,0.31640625,-0.86259544,-0.48091602,-2.534351,12
0.22668457,0.11071777,0.26208496,2.29771,-0.259542,-2.3206108,12
0.23132324,0.11126709,0.33831787,-0.78625953,-0.22137405,-2.8091602000000004,12
0.22955322,0.11853027,0.31591797,0.34351146,1.4580153,-4.1984735,12
0.22259521,0.10418701,0.33831787,2.2595419999999997,0.5114504,-3.0610687999999997,12
0.22290039,0.10766601599999999,0.305542,2.1221373,0.48091602,-2.534351,12
0.22100830000000002,0.11401367,0.36602783,-0.19083970000000003,0.6488550000000001,-1.6259542,12
0.21520996,0.10504150400000001,0.22979736,1.4274809,-0.65648854,-3.8549618999999997,12
0.22973633,0.10253906,0.043762207000000004,-0.67175573,0.84732825,-1.4351145,12
0.22515869,0.10583496,0.2612915,0.259542,1.2137405,-3.1450381000000003,12
0.22021484,0.11022949,0.16314697,-0.86259544,0.7557252,-3.7480917000000002,12
0.22882080000000002,0.10455322,0.13238525,2.8854961,1.1984733,-1.0,12
0.22161865,0.10571289,0.13586426,-1.389313,0.38931298,-1.1297709999999999,12
0.22979736,0.11206055,0.40979004,1.5877863,1.961832,-0.38931298,12
0.21759033,0.11328125,0.27703857,-1.351145,1.2977100000000001,-3.9694656999999998,12
0.22424316,0.11175537,0.34313965,-2.129771,1.1832061000000003,-2.1145039,12
0.21856689999999998,0.11273193,0.3269043,-0.90076333,0.36641222,-2.9923662999999996,12
0.22698975,0.10900879,0.3751831,-0.84732825,0.90076333,-3.9770992,12
0.22167969,0.11022949,0.34020996,-0.17557251,0.10687023,-3.8931297999999996,12
0.21679688,0.113098145,0.33831787,-0.70229006,0.23664123,-3.5877862,12
0.23022461,0.10614014,0.30841064,-1.3129771000000001,2.1603053,-4.7709923,12
0.22290039,0.10546875,0.058410645,-3.908397,-1.2900764,-5.2824425999999995,12
0.22180176,0.121154785,0.42578125,-0.90839696,0.007633588,-5.190840000000001,12
0.21472168,0.1149292,0.11889648400000001,-2.3358779999999997,-3.3816792999999996,-5.847328,12
0.21661377,0.10510254,0.2670288,1.0229008,1.6870228999999999,-5.5419846,12
0.21826172,0.10913086,0.29248047,1.0687023,1.519084,-5.10687,12
0.21960449,0.10394287,0.38494873,1.5038168,0.061068702,-2.8854961,12
0.22045898,0.109436035,0.28021240000000003,0.41221374,1.9923664,-3.7099237,12
0.22216797,0.11108398400000001,0.29449463,1.5343511,1.3587786,-3.3893129999999996,12
0.22613525,0.113464355,0.38433838,1.3435115,1.9541985,-3.8473281999999998,12
0.22265625,0.11602783,0.31396484,0.54198474,2.1603053,-3.3053436,12
0.21716309,0.10467529,0.25463867,-2.053435,-0.47328246,-2.8854961,12
0.21820068,0.11657715,0.31347656,-2.4122138,1.6335878000000001,-3.8854961,12
0.22296143,0.113342285,0.27191162,-1.4122137,1.6335878000000001,-4.633588,12
0.21759033,0.103393555,0.09210205,-3.8931297999999996,0.43511450000000007,-2.7633588,12
0.21618652,0.10870361,0.13641357,0.8015267,1.4198473999999999,-2.6717557999999997,12
0.21978760000000003,0.11138916,0.19763184,-0.96183205,0.2519084,-3.9389312000000007,12
0.22064209,0.11834717,0.33624268,0.3740458,2.091603,-3.8931297999999996,12
0.22137451,0.115234375,0.3232422,1.3740458,0.5496183000000001,-3.70229,12
0.22680664,0.11315918,0.30828857,-0.08396947,1.4503816,-2.6564887,12
0.21740723,0.10748291,0.29675293,0.83206105,0.8015267,-2.038168,12
0.22814941,0.110839844,0.35833740000000003,-0.20610687,1.1984733,-4.145038,12
0.22167969,0.11059569999999999,0.35992432,-1.5877863,1.8854961,-3.4580152,12
0.21771239999999997,0.10662842,0.31420898,-1.0458015,1.6335878000000001,-3.6259542000000002,12
0.22277832,0.11602783,0.36157227,-2.0,1.3969465,-2.4580152,12
0.21051025,0.107910156,0.19152832,0.9541985000000001,1.6793894,-1.4580153,12
0.21624756,0.113098145,0.29785156,1.3358778999999998,0.38167940000000006,-0.84732825,12
0.20843506,0.10418701,0.12414551,1.6030535,2.778626,-2.2595419999999997,12
0.22387695,0.11834717,0.3612671,-0.27480915,2.3053436,-2.0610688,12
0.21875,0.107543945,0.13256836,2.8778627,3.2595419999999997,-0.8854962,12
0.22760010000000003,0.1015625,0.12695312,1.2061069,0.35877863,-3.4961832000000004,12
0.21478271,0.11236572,0.18682861,1.3358778999999998,0.40458015,-2.2824428,12
0.22143555,0.11486816400000001,0.33398438,-0.40458015,2.1908397999999996,-2.183206,12
0.21899414,0.11096191400000001,0.29473877,-0.38931298,1.9389313000000001,-3.3969467000000004,12
0.21862793,0.11480713,0.26428223,1.3282443000000002,0.32824427,-1.5496184,12
0.21881104,0.11065674,0.3548584,0.29007635,3.8549618999999997,-0.99236643,12
0.21459961,0.10601807,0.053527832000000004,-0.5496183000000001,1.5572518999999998,-2.6717557999999997,12
0.21972656,0.10607910000000002,0.14520264,0.015267176,0.26717559,-2.3511450000000003,12
0.22113037,0.11291504,0.09271239999999999,1.9770991999999998,-1.7328244,-1.648855,12
0.23370361,0.09881592,0.2755127,0.015267176,2.557252,-2.129771,12
0.21319580000000002,0.1038208,0.19567871,-1.6641221000000002,1.2366412,0.007633588,12
0.22119139999999998,0.11169433599999999,0.30285645,-0.65648854,1.6183206,-2.7175572,12
0.22497559,0.11370849599999999,0.20831299,2.427481,1.8473282,-1.8854961,12
0.22680664,0.11035156,0.29840088,0.16793893,2.389313,-4.0076336999999995,12
0.22875977,0.10510254,0.28881836,0.15267175,0.46564886,-0.20610687,12
0.22039795,0.10015869,0.2923584,1.0839695,0.35877863,-0.9465648999999999,12
0.22381592,0.11706543,0.2871704,0.45801526,1.0305344,-3.9007633000000004,12
0.22186279999999997,0.10626221,0.33514404,-1.0152671,0.24427481,-3.0152671000000004,12
0.22888184,0.11108398400000001,0.22888184,-2.6259542000000002,0.55725193,-3.2595419999999997,12
0.23406982,0.10644531,0.046691895,-5.015267400000001,0.45038167,-1.1221374,12
0.21911621,0.11328125,0.22760010000000003,-4.7709923,-0.48091602,-3.2748091,12
0.22003174,0.10980224599999999,0.27880859999999996,-4.7862597000000004,0.9160305000000001,-4.854962,12
0.23260498,0.10333252,0.26574707,-5.480916000000001,0.740458,-4.656488400000001,12
0.22570801,0.11987305,0.26556396,-3.5801528,-0.22137405,-3.1221373,12
0.21936035,0.10992432,0.25354004,-4.5648856,0.57251906,-3.8778627,12
0.23242188,0.12097168,0.32177734,-6.068702,-0.26717559,-2.3435113,12
0.22784424,0.11157226599999999,0.2970581,0.122137405,-0.9236641,-2.9847328999999996,12
0.22485352,0.10980224599999999,0.18164062,-1.8549619,1.8396946,-3.2671757,12
0.22229004,0.1116333,0.19213867,-1.4351145,-0.7633588000000001,-4.259542,12
0.21801758,0.11663818,0.28552246,-1.6564884999999998,2.1603053,-2.29771,12
0.215271,0.11065674,0.11688232400000001,-0.86259544,0.19847329,-3.923664,12
0.22198486,0.11230469,0.17993164,-0.18320611,0.45038167,-3.3816792999999996,12
0.23071289,0.1083374,0.32916259999999997,-0.35877863,-0.31297709999999995,-3.1603053,12
0.22192383,0.11102295,0.19104004,-2.9007633,-1.0687023,-3.0229008,12
0.23504639,0.113098145,0.33532715,-2.778626,-0.77099234,-3.8091602,12
0.22454834,0.105407715,0.28942870000000004,-0.03816794,-0.3740458,-3.6259542000000002,12
0.21978760000000003,0.10522461,0.15411377,-1.1221374,0.73282444,-2.8625952999999997,12
0.22247314,0.10809326,0.31604004,-1.4732825,0.99236643,-4.152672,12
0.2142334,0.12036133,0.32476807,-2.6564887,1.9007633999999998,-3.3053436,12
0.21685791,0.11407471,0.21911621,-1.221374,1.6564884999999998,-2.076336,12
0.21282959,0.11242676,0.22772217,2.0152671000000004,2.1221373,-2.4351146,12
0.22253418,0.10998535,0.26776123,-1.3664121999999999,1.0992366000000002,-3.2671757,12
0.21734619,0.11584473,0.17590332,0.70229006,-0.46564886,-2.312977,12
0.21850586,0.10607910000000002,0.16186523,-0.77099234,0.8549618,-3.29771,12
0.21136475,0.1083374,0.06103515599999999,-0.47328246,2.4351146,-1.7862595000000001,12
0.22552489999999997,0.11260986,0.33935547,-0.45801526,2.7099237,-5.5038165999999995,12
0.22277832,0.10864258,0.29888916,-0.061068702,1.9312977,-3.4503817999999997,12
0.22790527,0.11053467,0.1194458,1.9160305,1.9847328999999998,-1.8167938999999997,12
0.21875,0.10601807,0.11291504,3.8091602,1.259542,-2.1145039,12
0.2244873,0.11224365,0.36395264,2.0,1.2290076,-3.3129769999999996,12
0.21826172,0.10607910000000002,0.28161620000000004,2.6259542000000002,2.9847328999999996,-2.7557251,12
0.2232666,0.11407471,0.3126831,4.3893127,1.2900764,-3.908397,12
0.21624756,0.109375,0.101501465,-0.23664123,2.465649,-3.1755726,12
0.22265625,0.107543945,0.30285645,2.4351146,0.99236643,-4.7099237,12
0.21844482,0.10876465,0.35998535,-0.53435117,2.0458016,-3.3129769999999996,12
0.22229004,0.10803223,0.11029053,-1.8778626,2.6030533,-5.885496,12
0.22119139999999998,0.109558105,0.32373047,-1.5267175,-0.3740458,-5.6870227,12
0.21679688,0.10852051,0.081848145,-1.9312977,1.1221374,-3.1221373,12
0.22314453,0.10638428,0.33532715,-1.4274809,0.52671754,-5.3511453,12
0.22125244,0.106933594,0.3251953,-3.1984732000000005,0.45801526,-4.984732599999999,12
0.22174072,0.10607910000000002,0.10583496,-4.2137402999999996,-1.9236640999999999,-4.1297708,12
0.22070312,0.10510254,0.1281128,-6.4198474999999995,-0.8244275,-5.2900763,12
0.22015381,0.107910156,0.11383057,-7.839694500000001,-1.70229,-4.9389315,12
0.21710205,0.11047363,0.28649902,-7.2137402999999996,-1.7938931,-5.816794,12
0.22161865,0.10516357400000001,0.3139038,-10.038167999999999,-0.41221374,-7.2748094,12
0.22491455,0.11090088,0.36853027,-14.076335999999998,-3.4580152,-8.030535,12
0.21887207,0.10571289,0.11242676,-11.916031,-6.10687,-8.007633,12
0.21203613,0.10607910000000002,0.2722168,-12.80916,-5.6870227,-7.1450380000000004,12
0.21405029999999997,0.117126465,0.32165527,-12.320611,-2.557252,-7.19084,12
0.21234131,0.11242676,0.1763916,-9.137404,-3.3587787000000002,-6.9847326,12
0.21679688,0.11376953,0.28845215,-11.770992,-1.4732825,-5.587786,12
0.22021484,0.1161499,0.34558105,-8.122137,-0.7557252,-6.2137402999999996,12
0.22790527,0.1274414,0.26617432,-8.450381,-1.8854961,-5.221374,12
0.20892334,0.11431885,0.1381836,-7.2748094,0.16030534,-5.5038165999999995,12
0.21997070000000005,0.11669922,0.3812256,-4.9541984,0.9389313,-5.5725193,12
0.22155762,0.11480713,0.37060547,-1.8549619,-1.7709924,-3.8778627,12
0.2310791,0.11987305,0.30316162,-2.4503817999999997,1.3740458,-4.59542,12
0.22357178,0.11682129,0.32397459999999995,0.84732825,1.5648855,-3.4732822999999997,12
0.22235107,0.115112305,0.19488525,-0.49618322,0.7251908,-3.6870230000000004,12
0.21398926,0.12426758,0.28320312,-0.6335878,2.053435,-3.908397,12
0.23590088,0.11285400400000001,0.10388183599999999,1.4503816,2.816794,-2.7633588,12
0.22607422,0.11456299,0.27716064,1.3664121999999999,1.9770991999999998,-0.20610687,12
0.22058105,0.120910645,0.27661133,-1.1755725000000001,4.7709923,-1.6335878000000001,12
0.22332764,0.11871338,0.2857666,5.259542,3.7862597,-0.7099236999999999,12
0.21954346,0.11883545,0.29022217,6.0610685,4.6793895,-2.5648854,12
0.21838379,0.11688232400000001,0.12786865,8.015267,4.5343513,-0.65648854,12
0.23254395,0.11529541,0.354187,7.5801525,5.5343513,-2.610687,12
0.21484375,0.11376953,0.14367676,7.7328243,4.9389315,0.099236645,12
0.22064209,0.12219238,0.2508545,8.763359,6.3893127,-0.2977099,12
0.23010254,0.11932373,0.27404785,10.122137,6.1374044,-1.091603,12
0.21514893,0.10504150400000001,0.12872314,5.946564700000001,3.9770992,1.2137405,12
0.21887207,0.11706543,0.16363525,8.641221,4.2290077,-1.1145038999999999,12
0.22058105,0.105407715,0.27270508,6.816794,4.145038,1.0992366000000002,12
0.21264648,0.10449219,0.13397217,9.824428,3.793893,1.8015267,12
0.22045898,0.11389160000000002,0.3187256,8.938931,5.343511599999999,1.3282443000000002,12
0.22167969,0.11425781,0.37219238,8.114504,4.4503818,1.2900764,12
0.22839355,0.1083374,0.30792236,9.267176,5.0,1.9236640999999999,12
0.22436523,0.11126709,0.32995605,8.015267,3.8778627,1.7633588,12
0.22363281,0.11657715,0.31292725,7.480916000000001,4.0839696000000005,0.99236643,12
0.21716309,0.10974121,0.35803223,7.557252,4.2748094000000005,0.8015267,12
0.21850586,0.111816406,0.15802002,7.9770994,2.7328243,2.3969467,12
0.22521973,0.10760498,0.11047363,5.816794,1.8854961,1.7251908999999999,12
0.21984863,0.11425781,0.28216553,5.9007635,2.0458016,-0.34351146,12
0.22125244,0.11456299,0.19152832,3.3358779999999997,3.129771,1.9389313000000001,12
0.21496582,0.1071167,0.11218262,4.6870227,1.8244275,-0.86259544,12
0.22375488,0.11297607400000001,0.32928467,2.9694657,2.4732822999999997,-1.9770991999999998,12
0.230896,0.11065674,0.38616943,5.6946564,2.961832,-1.480916,12
0.22674560000000002,0.11114502,0.34979248,3.9312977999999994,3.091603,-2.183206,12
0.21264648,0.10479736,0.14379883,3.221374,2.3282442000000003,-1.2137405,12
0.22497559,0.11254883,0.17059326,1.4580153,2.6793892,-3.0458016,12
0.22381592,0.10839844,0.18988037,2.4122138,-0.90839696,-3.7480917000000002,12
0.21752929999999995,0.09906006,0.15081787,0.35877863,-0.55725193,0.061068702,12
0.22631836,0.10455322,0.3842163,-1.8320610000000002,0.16793893,-1.1450381,12
0.22344970000000003,0.10968017599999999,0.08331299,-2.793893,-0.78625953,-2.4198472,12
0.22412110000000002,0.11010742,0.29455566,-3.3740457999999998,0.122137405,-2.3969467,12
0.22076416,0.11468506,0.33343506,-3.1145039,-0.96183205,-1.2900764,12
0.21704102,0.11395264,0.28753662,-6.6488547,-0.9312976999999999,-3.4885497,12
0.22668457,0.11437988,0.34887695,-6.1984735,-2.0687022,-2.8091602000000004,12
0.22137451,0.11224365,0.31445312,-3.9541983999999997,-0.5648854999999999,-1.5877863,12
0.22393799,0.10070801,0.20147705,-4.343511599999999,-1.2061069,-2.8854961,12
0.22137451,0.10870361,0.25579834,-5.1679387000000006,-1.9083970000000001,-3.1068702,12
0.22351074,0.1161499,0.32141113,-4.4198474999999995,-0.57251906,-1.4122137,12
0.22344970000000003,0.10803223,0.32916259999999997,-4.8244276,-2.5648854,-2.0458016,12
0.22369385,0.10748291,0.25036620000000004,-2.6412212999999998,-0.10687023,-2.1984732000000005,12
0.22058105,0.10583496,0.06036377,-7.0,-0.32061067,0.6335878,12
0.2232666,0.10308838,0.21881104,-1.221374,-1.0152671,-1.5038168,12
0.22229004,0.11059569999999999,0.38226318,-2.3816792999999996,0.8091603,-1.4351145,12
0.23046875,0.10595703,0.35064697,-3.961832,0.6183206,-0.99236643,12
0.22619629,0.10656738,0.23382568,-0.259542,0.77099234,-2.3740457999999998,12
0.22052002,0.11279297,0.32928467,-2.2519082999999998,-1.1297709999999999,-1.7404580000000003,12
0.22241211,0.11267089999999998,0.3626709,3.5496182000000003,2.9847328999999996,0.259542,12
0.21630860000000002,0.103027344,0.24597168,7.0,2.4580152,-0.77099234,12
0.2232666,0.10577392599999999,0.31884766,5.9923663000000005,3.4198472,0.41984734,12
0.23071289,0.11035156,0.4260254,7.3511453,2.70229,-0.31297709999999995,12
0.22558594,0.101501465,0.23919678,4.984732599999999,0.45038167,-0.8778626,12
0.22509766,0.10778808599999999,0.37884520000000005,7.847328,1.1221374,-0.19083970000000003,12
0.22406006,0.10284424,0.27270508,8.290076,0.9160305000000001,-1.4427481000000002,12
0.22497559,0.10784912,0.23999023,4.5496182,1.7328244,-1.3282443000000002,12
0.21453857,0.10107422,0.11810303,6.4885497,0.9541985000000001,-2.2519082999999998,12
0.22576904,0.113098145,0.25897217,5.603053599999999,2.923664,-0.519084,12
0.21881104,0.10095215,0.11938476599999999,4.6183205,-0.35877863,-2.0992367,12
0.22515869,0.10327148400000001,0.13214111,3.778626,2.4885497,-1.6335878000000001,12
0.22619629,0.10266113,0.30291748,3.5801528,0.97709924,-3.6870230000000004,12
0.22485352,0.1026001,0.28985596,4.0839696000000005,-0.19083970000000003,-3.8091602,12
0.22979736,0.10699463,0.23699951,3.1755726,-0.2519084,-3.221374,12
0.23327637,0.1003418,0.12054443,1.5725191,-1.8015267,-3.4274809999999998,12
0.22692871,0.10778808599999999,0.27746582,3.7175572,0.54198474,-3.3358779999999997,12
0.22760010000000003,0.11297607400000001,0.06732178,-0.36641222,-1.3435115,-4.2519083,12
0.22399902,0.10003662,0.10412598,1.7404580000000003,-1.0229008,-2.8396947,12
0.22363281,0.11157226599999999,0.11407471,3.221374,0.90839696,-3.0458016,12
0.22662354,0.10546875,0.13842773,1.6030535,-2.3206108,-3.0839694,12
0.22766113,0.111816406,0.24816895,0.129771,-0.86259544,-5.1755724,12
0.21557617,0.11853027,0.29864502,0.34351146,0.21374045,-4.0458016,12
0.22167969,0.10687256,0.07800293,2.076336,-1.1755725000000001,-3.6717557999999997,12
0.22375488,0.11413574,0.24774169999999998,1.1755725000000001,1.5419847,-3.1908397999999996,12
0.22009277,0.11090088,0.25079346,0.86259544,-0.091603056,-3.091603,12
0.22497559,0.11224365,0.31292725,2.70229,0.3053435,-3.2595419999999997,12
0.22125244,0.10406494,0.10357666,1.1374046,1.6259542,-4.5648856,12
0.22729492,0.10491943,0.05218506,1.5038168,1.0458015,-2.038168,12
0.215271,0.10516357400000001,0.16693115,2.3282442000000003,0.2519084,-2.427481,12
0.21807861,0.103515625,0.11596680000000001,0.48854962,0.022900764,-3.3206108,12
0.22143555,0.11254883,0.29138184,-0.77099234,1.1679389999999998,-3.129771,12
0.21722412,0.10327148400000001,0.10681152,0.5648854999999999,-0.36641222,-4.2290077,12
0.22253418,0.11248779,0.08880615,1.8396946,1.9236640999999999,-3.4961832000000004,12
0.22955322,0.10913086,0.26727295,0.84732825,1.5954198999999998,-4.8244276,12
0.23126220000000003,0.11627197,0.34106445,-2.7557251,3.0076337000000004,-2.9770992,12
0.22705078,0.10925293,0.31158447,-0.45801526,1.5725191,-3.793893,12
0.21740723,0.1116333,0.21697998,1.5267175,3.9007633000000004,-2.793893,12
0.2142334,0.10986328,0.12835693,1.5801526000000001,1.8320610000000002,-4.3511453,12
0.22283936,0.10815430000000001,0.32055664,-1.5267175,2.572519,-4.763358599999999,12
0.21295166,0.10723877,0.17156982,0.2519084,2.5801528,-3.0610687999999997,12
0.22381592,0.103637695,0.08563232400000001,0.33587787,1.7786259999999998,-3.1603053,12
0.22467041,0.10485839999999998,0.30993652,0.28244275,1.4885496,-4.7022900000000005,12
0.21752929999999995,0.10870361,0.16833496,-0.77862597,2.6183207000000004,-3.5496182000000003,12
0.21630860000000002,0.111328125,0.27618408,-0.2519084,1.1984733,-3.3740457999999998,12
0.22418213,0.11071777,0.14880371,-0.90076333,-0.9160305000000001,-4.7938933,12
0.22088623,0.10894775400000001,0.21704102,-1.3587786,1.3969465,-3.8473281999999998,12
0.23535156,0.109558105,0.31652832,-2.793893,1.7786259999999998,-3.7862597,12
0.21295166,0.10272217,0.30072020000000005,-2.7099237,3.1374047000000003,-2.5801528,12
0.22717285,0.099487305,0.10827637,1.4961832,2.6183207000000004,-0.36641222,12
0.23144531,0.10662842,0.34173584,-0.091603056,4.053435299999999,-0.061068702,12
0.23028564,0.11169433599999999,0.29107666,2.6793892,4.2290077,1.9389313000000001,12
0.21899414,0.10668945,0.16314697,1.5801526000000001,4.091603299999999,2.519084,12
0.22027588,0.10882568,0.10479736,0.8854962,5.946564700000001,2.7404580000000003,12
0.22406006,0.10626221,0.17492676,1.5419847,3.6564887,4.328244000000001,12
0.22070312,0.11138916,0.2798462,5.7175574000000005,2.7099237,4.740458,12
0.22338867,0.10784912,0.15014648,4.442748,1.3969465,3.8473281999999998,12
0.22210693,0.11035156,0.31951904,4.0152674,2.8244274,3.8396947,12
0.21954346,0.11071777,0.28625488,0.6946565,1.0992366000000002,-1.6946564999999998,12
0.22186279999999997,0.11370849599999999,0.29711914,-1.0610687,0.70229006,-1.5572518999999998,12
0.2208252,0.11602783,0.105407715,-1.3664121999999999,-1.389313,-0.6259541999999999,12
0.23529053,0.09576416,0.38476562,-95.05344000000001,-26.038168,-46.091602,12
0.2265625,0.13513184,0.063964844,-99.12214,-40.702290000000005,-44.53435,12
0.23681639999999998,0.13513184,0.32409668,-54.290077000000004,-42.641220000000004,-35.190838,12
0.24127197,0.13415527,0.12365723,-24.648854999999998,-28.832062,-19.725191,12
0.24554443,0.11834717,0.3536377,-8.030535,-20.122137,-10.015267,12
0.23333739999999997,0.11657715,0.34710693,-4.519083999999999,-12.198473,-7.3511453,12
0.23211669999999998,0.11456299,0.35125732,-3.0839694,-6.8015265,-8.770992,12
0.18652344,0.09490967,0.23583984,-14.725191,-5.015267400000001,-11.496183,12
0.23211669999999998,0.091918945,0.260437,-8.595419999999999,-16.687023,-14.541985,12
0.22528076,0.10296631,0.21728516,-14.396947,-11.427481,-15.007632999999998,12
0.22601318,0.11328125,0.31280518,4.328244000000001,17.679389999999998,1.6259542,12
0.21746826,0.11450195,0.06359863,20.801527,6.015267400000001,11.816792999999999,12
0.21942139,0.113342285,0.2510376,17.732824,1.480916,8.702291,12
0.22198486,0.11828613,0.05230713,16.519083,0.053435113,3.793893,12
0.22375488,0.11541748,0.21917725,13.961832000000001,-1.221374,1.5725191,12
0.23144531,0.11395264,0.30944824,11.152672,-0.7251908,-1.8015267,12
0.22851562,0.110839844,0.26965332,3.7251909,-3.5648854,-6.3816795,12
0.23382568,0.09613037,0.10864258,-2.4885497,-6.2061067,-11.374044999999999,12
0.22802734,0.08264160000000001,0.26879883,-4.961832,-3.6793892,-11.167939,12
0.21911621,0.101745605,0.12554932,-15.961832000000001,-1.1832061000000003,-5.221374,12
0.22851562,0.10882568,0.42321777,-15.259541500000001,-0.6793893,-4.816794,12
0.21765137,0.1182251,0.059020996,-10.641221,-0.45801526,-3.4427480000000004,12
0.22607422,0.10913086,0.17565918,-1.7862595000000001,0.38931298,-1.3816794,12
0.22503662,0.10601807,0.22644043,0.18320611,3.7633588,-1.6259542,12
0.22912598,0.10522461,0.31817627,1.5877863,4.3206105,-1.6946564999999998,12
0.22705078,0.113342285,0.17346191,-1.5496184,4.3893127,-4.3129773,12
0.22485352,0.10803223,0.31677246,1.1908396,2.832061,-2.9847328999999996,12
0.21765137,0.11053467,0.27850342,-2.091603,3.0229008,-4.9389315,12
0.21960449,0.10778808599999999,0.16448975,4.145038,2.9160306,-4.0992365,12
0.22650146,0.11340332,0.28271484,5.5648856,2.3969467,-4.778626,12
0.22875977,0.10717773400000001,0.3032837,6.1984735,5.1221375,-2.3664122000000005,12
0.22192383,0.10821533,0.29260254,9.206107000000001,4.847328,-1.4961832,12
0.22198486,0.10559082,0.27746582,6.0076336999999995,4.519083999999999,-1.8931297999999999,12
0.22473145,0.10375976599999999,0.30969238,10.862596,2.221374,-1.3816794,12
0.22375488,0.09906006,0.1362915,7.068702,4.091603299999999,-2.6412212999999998,12
0.22619629,0.103637695,0.38568115,2.2595419999999997,3.076336,-3.221374,12
0.22436523,0.10308838,0.12188721,2.7404580000000003,1.8931297999999999,-2.9007633,12
0.22412110000000002,0.1071167,0.28729248,3.1755726,2.0992367,-4.091603299999999,12
0.21942139,0.09997558599999999,0.1586914,2.4045799999999997,2.29771,-5.519083999999999,12
0.22332764,0.10290527,0.28070068,-0.03816794,2.465649,-5.4885497,12
0.22497559,0.1038208,0.08428955,-1.8167938999999997,1.259542,-4.3587785000000006,12
0.2232666,0.10211182,0.22509766,0.045801528,2.1450381000000003,-4.1984735,12
0.22430419999999998,0.09936523400000001,0.33172607,-1.648855,1.5343511,-6.526717700000001,12
0.22436523,0.100097656,0.29241943,0.38931298,2.793893,-3.3587787000000002,12
0.22467041,0.10681152,0.27941895,0.28244275,4.8015265,-3.3816792999999996,12
0.2265625,0.11212158,0.35571290000000005,4.984732599999999,3.7557251000000003,0.65648854,12
0.23260498,0.11370849599999999,0.047607422,6.068702,3.8396947,1.6793894,12
0.22460938,0.11456299,0.16101074,3.5496182000000003,3.1603053,-1.3282443000000002,12
0.22729492,0.11645508,0.16656494,0.2519084,2.8473282,-7.152672,12
0.22332764,0.10424805,0.31689453,8.816792999999999,3.534351,-2.4198472,12
0.22991943,0.109313965,0.29730225,5.7709923,2.0305343000000002,-3.9312977999999994,12
0.22460938,0.103393555,0.11071777,9.7786255,2.5648854,-2.5038167999999996,12
0.23052979,0.10516357400000001,0.31622314,6.7709923,5.221374,-1.5954198999999998,12
0.21948242,0.11273193,0.074035645,8.732824,5.2519083,0.5954198,12
0.22888184,0.11212158,0.29675293,11.0,3.5496182000000003,-2.29771,12
0.22045898,0.11199951,0.06726074,12.290076,3.793893,-2.5038167999999996,12
0.22027588,0.10217285,0.21826172,12.954199000000001,2.0687022,-1.8473282,12
0.22943115,0.09655762,0.04498291,5.236641400000001,3.1603053,-0.22900763,12
0.21875,0.101501465,0.13916016,5.2900763,2.0839694,-0.35877863,12
0.22094727,0.115234375,0.25683594,2.610687,3.3587787000000002,-1.389313,12
0.22857666,0.111206055,0.3302002,4.7557254,3.9389312000000007,-1.3435115,12
0.22662354,0.10827637,0.07281494,3.3664122000000005,2.6641220000000003,-2.29771,12
0.21337889999999998,0.09893799,0.22320557,1.8549619,3.961832,-0.9389313,12
0.23168945,0.110839844,0.13354492,3.4961832000000004,1.8931297999999999,-2.2442749,12
0.22332764,0.10662842,0.07843017599999999,-1.6793894,1.2366412,-0.53435117,12
0.22589111,0.10369873,0.21166992,2.8549618999999997,0.46564886,-2.480916,12
0.21936035,0.093933105,0.11230469,0.18320611,-0.32061067,-2.6946564,12
0.22167969,0.10522461,0.13275146,-1.6717557,-0.35114503,-2.6488549999999997,12
0.22357178,0.10058594,0.1796875,-0.16793893,0.89312977,-4.2442746,12
0.22918701,0.10076904,0.14886475,-0.79389316,1.4503816,-1.9465648999999998,12
0.21936035,0.10314941400000001,0.0836792,-0.122137405,2.2595419999999997,-2.778626,12
0.22167969,0.105407715,0.29779053,-1.5038168,0.32824427,-2.832061,12
0.22583008,0.11071777,0.28192140000000004,-0.79389316,0.29007635,-3.5038167999999996,12
0.22875977,0.11401367,0.16656494,-1.1221374,0.45038167,-2.6641220000000003,12
0.22344970000000003,0.111450195,0.2713623,-0.28244275,1.7175573,-4.6488547,12
0.22338867,0.10406494,0.08666992,-4.0152674,0.21374045,-3.40458,12
0.22619629,0.099121094,0.0925293,-1.4503816,-0.40458015,-2.70229,12
0.22857666,0.09802246,0.16394043,-3.8015267999999995,-1.6641221000000002,-2.778626,12
0.22174072,0.10461426,0.1665039,-2.0458016,-2.5801528,-3.2519082999999998,12
0.22149658,0.10626221,0.21923828,-1.351145,1.9007633999999998,-4.4198474999999995,12
0.22375488,0.10125732400000001,0.15350342,-2.465649,0.14503817,-2.8549618999999997,12
0.22265625,0.09967041,0.16473389,-3.946565,-0.5114504,-5.1297708,12
0.22460938,0.10864258,0.19128418,-5.1755724,-0.053435113,-4.2748094000000005,12
0.22167969,0.11090088,0.074035645,-4.2671757,0.8778626,-2.8931298,12
0.2230835,0.10662842,0.08129883,-2.6793892,1.221374,-4.2137402999999996,12
0.22497559,0.10357666,0.21295166,-4.2977099999999995,0.36641222,-3.7480917000000002,12
0.21868896,0.10699463,0.07843017599999999,-5.8778625,-0.5114504,-1.5267175,12
0.22601318,0.109313965,0.17883301,-1.2671756,2.29771,-3.9389312000000007,12
0.22546387,0.11071777,0.119018555,-4.236641400000001,-0.39694658,-3.4198472,12
0.2208252,0.10455322,0.0993042,-1.038168,1.4351145,-2.3358779999999997,12
0.21942139,0.10101318,0.06677246,7.160305499999999,-0.14503817,-0.9389313,12
0.22088623,0.10321045,0.17480469,-0.6183206,1.8549619,-2.053435,12
0.22430419999999998,0.11035156,0.08117676,-2.70229,-2.6946564,-3.4809160000000006,12
0.22717285,0.11389160000000002,0.18310547,-1.0839695,2.2137403,-3.0229008,12
0.2220459,0.10333252,0.12536621,0.5038168,2.8473282,-0.5648854999999999,12
0.21710205,0.10461426,0.13690186,-0.122137405,2.4503817999999997,-1.2366412,12
0.22003174,0.10583496,0.13201904,-0.2977099,0.43511450000000007,-1.8625953999999998,12
0.22259521,0.10626221,0.21783447,-3.946565,0.610687,-1.9541985,12
0.21978760000000003,0.10644531,0.10968017599999999,-1.9007633999999998,-0.19083970000000003,-2.7175572,12
0.23931885,0.09704589999999999,0.029724121000000003,-1.5038168,1.038168,-3.3740457999999998,12
0.22229004,0.10766601599999999,0.18969727,1.5114504,1.480916,-4.7022900000000005,12
0.21728516,0.10815430000000001,0.17315674,-1.2900764,1.6412214,-2.687023,12
0.22052002,0.10705566400000001,0.1618042,0.32061067,-0.89312977,-3.9007633000000004,12
0.22235107,0.10217285,0.09820557,-1.1755725000000001,-2.7862597,-4.557252,12
0.22119139999999998,0.10510254,0.09545898400000001,-3.5114503,-3.6564887,-3.3282442000000003,12
0.22973633,0.09967041,0.08929443,-1.221374,1.5114504,-3.7404580000000003,12
0.21740723,0.10656738,0.10266113,-1.0152671,0.122137405,-3.038168,12
0.22229004,0.11248779,0.10992432,2.6641220000000003,1.5419847,-2.8549618999999997,12
0.21881104,0.09820557,0.18951416,1.9083970000000001,2.8854961,-0.15267175,12
0.22485352,0.11077881,0.18743896,-3.2519082999999998,1.5725191,-2.2519082999999998,12
0.22875977,0.10632324,0.22271729,2.4885497,0.84732825,0.18320611,12
0.2230835,0.10748291,0.13140869,-2.4503817999999997,1.7251908999999999,-1.2442749,12
0.2144165,0.10662842,0.19146729,-4.9694657,0.6259541999999999,-1.9847328999999998,12
0.23468018,0.11395264,0.06628418,-3.1755726,2.053435,-2.2137403,12
0.22894287,0.10473633,0.17767334,1.3053435,1.6564884999999998,-4.221374,12
0.22167969,0.10827637,0.11791992,0.58778626,-1.0610687,-2.7557251,12
0.22332764,0.10913086,0.15570068,3.3435113,0.49618322,-1.7938931,12
0.23211669999999998,0.10760498,0.29089355,-0.6335878,1.2748091000000001,-3.1374047000000003,12
0.22509766,0.10675049,0.23309326,2.076336,0.7633588000000001,-2.534351,12
0.2220459,0.11035156,0.18353271,1.2748091000000001,1.7557251,-1.8091604,12
0.23101807,0.10253906,0.11016846,-0.8396947,0.48854962,-2.5648854,12
0.21997070000000005,0.10290527,0.08569336,2.0687022,1.7328244,-3.40458,12
0.21777344,0.11401367,0.11224365,-0.96183205,-0.22900763,-2.1374047000000003,12
0.23632812,0.10778808599999999,0.15478516,-2.923664,1.6412214,-2.832061,12
0.22949219,0.10662842,0.27679443,0.19083970000000003,1.6412214,-3.8854961,12
0.22711182,0.11340332,0.32922363,0.77862597,1.5343511,-2.1221373,12
0.21801758,0.10876465,0.22052002,0.045801528,-0.4427481,-2.8778627,12
0.2286377,0.10662842,0.14898682,-1.2137405,0.40458015,-1.5038168,12
0.23345947,0.11578369,0.31622314,-0.6488550000000001,0.33587787,-2.6946564,12
0.23199463,0.10095215,0.30725098,-1.8625953999999998,-0.8702290000000001,-2.3969467,12
0.22790527,0.09942627,0.10388183599999999,-1.70229,-0.83206105,-1.9389313000000001,12
0.21789551,0.10839844,0.1296997,-4.374046,-2.7175572,-2.7557251,12
0.22125244,0.11224365,0.10498047,-3.2595419999999997,-1.5496184,-2.519084,12
0.22644043,0.10705566400000001,0.13800049,-0.8549618,0.17557251,-3.2366412,12
0.22637939999999998,0.1083374,0.088012695,-2.9541984,0.8167939000000001,-2.5267177000000003,12
0.22827148,0.10510254,0.3189087,-3.9389312000000007,-1.1755725000000001,-1.5419847,12
0.22857666,0.10046387,0.06488037,-0.47328246,-0.091603056,-2.1068702,12
0.22766113,0.10839844,0.28393555,-2.5954200000000003,-0.16030534,-3.4351146,12
0.22662354,0.1104126,0.16979979999999997,-0.16030534,-0.16793893,-2.3587787000000002,12
0.22900389999999998,0.107299805,0.28771973,0.90076333,1.2671756,-2.946565,12
0.22253418,0.10906982400000001,0.21386719,-1.3129771000000001,0.22900763,-1.8778626,12
0.22027588,0.10839844,0.19207764,-0.5648854999999999,3.3435113,-3.1145039,12
0.21569824,0.10479736,0.21282959,-0.122137405,2.206107,-2.3358779999999997,12
0.23449707,0.09625244,0.060913086,3.3206108,0.22900763,-0.38931298,12
0.22796631,0.10699463,0.31896973,-0.18320611,-1.610687,-1.9694656000000004,12
0.22479248,0.11077881,0.2298584,-3.0687022,-0.46564886,-1.6717557,12
0.22552489999999997,0.10522461,0.33251953,-5.931298,0.5648854999999999,-4.4885497,12
0.22619629,0.10852051,0.22399902,0.20610687,4.8396945,-1.3969465,12
0.22619629,0.10308838,0.3137207,1.2290076,4.0076336999999995,0.16793893,12
0.22839355,0.11169433599999999,0.31274414,4.908396700000001,3.038168,-1.8625953999999998,12
0.22698975,0.10766601599999999,0.28637695,1.8549619,2.3664122000000005,-2.312977,12
0.2232666,0.10870361,0.29077148,6.259542,1.3282443000000002,-1.2977100000000001,12
0.22393799,0.10437012,0.13854979999999997,9.152672,3.5877862,-1.2290076,12
0.22668457,0.10418701,0.24371338,8.458015,2.29771,-2.0,12
0.2265625,0.10375976599999999,0.10003662,3.5572519999999996,-0.33587787,-2.5954200000000003,12
0.22363281,0.09564209,0.06860351599999999,3.7709922999999996,-3.0152671000000004,-2.7862597,12
0.21600342,0.09832764,0.10589599599999999,2.3740457999999998,0.83206105,-1.4656489,12
0.22113037,0.09680176,0.09155273400000001,0.08396947,2.0687022,-4.374046,12
0.22290039,0.09985351599999999,0.114746094,-0.08396947,-2.572519,-0.64122134,12
0.22821045,0.097717285,0.3265381,-1.1832061000000003,2.9312978,-1.9847328999999998,12
0.2230835,0.10314941400000001,0.19995117,-2.3206108,0.47328246,-2.1603053,12
0.22528076,0.10852051,0.33258057,-2.7633588,0.8167939000000001,-1.6793894,12
0.22229004,0.10821533,0.32861328,-1.5801526000000001,1.5114504,-3.6946564,12
0.22875977,0.10650635,0.41217040000000005,-6.0229006,3.7099237,-4.2442746,12
0.21942139,0.10461426,0.28051758,-7.0076336999999995,3.2519082999999998,-5.6488547,12
0.22363281,0.10797119,0.11663818,-4.4198474999999995,-0.31297709999999995,-4.3511453,12
0.2220459,0.09490967,0.07147217,-4.5038165999999995,2.206107,-2.1984732000000005,12
0.22369385,0.099609375,0.20080566,-4.3053436,-0.32824427,-2.5648854,12
0.21856689999999998,0.10089111,0.11395264,-1.7328244,1.6259542,-3.1221373,12
0.21228027,0.09362793,0.09277344,-0.007633588,-0.8549618,-0.5954198,12
0.22009277,0.09637451,0.1953125,1.9541985,2.6412212999999998,-0.7099236999999999,12
0.22991943,0.10681152,0.1651001,-2.7480917000000002,-0.54198474,-1.5877863,12
0.23187256,0.10107422,0.12683105,1.7404580000000003,1.610687,-2.312977,12
0.22802734,0.10913086,0.29559326,0.7480916,1.648855,-2.3358779999999997,12
0.22479248,0.09875488,0.14099121,-1.1526718,0.07633588,-3.038168,12
0.22430419999999998,0.10778808599999999,0.33532715,-0.2519084,1.0992366000000002,-3.3664122000000005,12
0.22277832,0.10278319999999999,0.1303711,-1.0992366000000002,0.34351146,-4.4961834000000005,12
0.22998047,0.10522461,0.08648682,3.70229,0.5114504,-2.091603,12
0.22161865,0.11578369,0.113342285,3.1374047000000003,1.2519083999999998,-3.076336,12
0.22259521,0.11267089999999998,0.047973632999999995,-0.114503816,1.2290076,-0.70229006,12
0.22839355,0.11285400400000001,0.09552002,-0.030534351,-1.0839695,-2.70229,12
0.23071289,0.10772705,0.06237793,1.9160305,-1.7709924,-4.0458016,12
0.23260498,0.10858154,0.27392578,3.6412212999999998,-0.6870229,-4.038168,12
0.24035645,0.10473633,0.17956543,0.18320611,0.10687023,-4.0305343,12
0.23059082,0.10058594,0.1708374,1.8778626,-0.015267176,-2.3511450000000003,12
0.2298584,0.10113525400000001,0.289917,1.1526718,-0.22137405,-1.961832,12
0.23583984,0.10357666,0.27526855,-2.534351,-1.5038168,-4.587786,12
0.21948242,0.10388183599999999,0.1303711,-2.9541984,-2.3206108,-6.0229006,12
0.22869873,0.111206055,0.27557373,1.0152671,-1.3587786,-4.0152674,12
0.23498535,0.10101318,0.124938965,3.3740457999999998,-0.18320611,-4.656488400000001,12
0.21679688,0.10235596,0.1772461,-1.8091604,0.23664123,-5.2977099999999995,12
0.23632812,0.09625244,0.23175049,-4.328244000000001,-0.38931298,-5.9007635,12
0.22979736,0.10430908,0.13043213,-4.053435299999999,-2.4961832000000004,-6.4198474999999995,12
0.22937012,0.10119629,0.2644043,-3.3053436,-0.6793893,-5.190840000000001,12
0.22235107,0.10125732400000001,0.16241455,-3.221374,-0.71755725,-5.6412214999999994,12
0.23156738,0.10650635,0.30255127,-4.038168,-1.3740458,-4.0610685,12
0.22534179999999995,0.113220215,0.17993164,-6.5496182,-0.54198474,-6.3511453,12
0.23675537,0.10656738,0.303833,-4.6183205,-1.8854961,-5.5496182,12
0.21795654,0.10644531,0.06707764,0.099236645,0.73282444,-5.4351144,12
0.22369385,0.10607910000000002,0.12109375,-2.8778627,-0.8778626,-3.9847328999999996,12
0.22351074,0.10797119,0.2677002,-7.0534353,-1.1145038999999999,-5.076336,12
0.23376465,0.09851074,0.088378906,-4.9694657,-5.4885497,-5.1221375,12
0.21960449,0.11517334,0.28100586,-7.664122,-0.19083970000000003,-8.198473,12
0.22717285,0.10076904,0.046447754,-2.534351,-0.66412216,-4.5496182,12
0.22766113,0.10296631,0.14752197,-0.14503817,1.1603054,-4.1679387000000006,12
0.22540283,0.115112305,0.17309570000000002,2.6564887,2.0076337,-4.1679387000000006,12
0.22814941,0.10980224599999999,0.27539062,-0.091603056,4.076336,-3.6564887,12
0.21990967,0.10211182,0.12030029,3.8473281999999998,3.0,-4.145038,12
0.22521973,0.10675049,0.20928955,-6.183206,-0.08396947,-3.3969467000000004,12
0.22912598,0.10845947,0.25170898,-2.465649,0.40458015,-4.1755724,12
0.22161865,0.110839844,0.27514648,-3.534351,3.870229,-4.7480917,12
0.230896,0.105285645,0.38311768,-1.5114504,2.9389312000000003,-2.1068702,12
0.22821045,0.10986328,0.18609619,-2.793893,3.946565,-3.923664,12
0.21948242,0.10986328,0.27087402,-2.3435113,0.21374045,-4.656488400000001,12
0.21582031,0.11303711,0.128479,-2.9160306,0.9312976999999999,-4.3129773,12
0.21997070000000005,0.10571289,0.10784912,1.1755725000000001,0.21374045,-4.7022900000000005,12
0.22045898,0.107421875,0.14129639,-3.3206108,3.4885497,-3.3358779999999997,12
0.22271729,0.10949707,0.21929932,2.9160306,3.1221373,-3.7175572,12
0.22766113,0.09979248,0.1829834,0.57251906,-0.19083970000000003,-1.3969465,12
0.21948242,0.10333252,0.15100098,-2.8931298,2.6564887,-2.2900763,12
0.2088623,0.11193848,0.14715576,-3.5725190000000002,1.6030535,-4.8625956,12
0.22406006,0.10852051,0.08813476599999999,-1.9923664,-0.54198474,-3.5419848,12
0.22131348,0.11462402,0.31256104,-4.3053436,1.0076336,-3.2290077,12
0.21508789,0.10394287,0.12677002,-4.7175574000000005,1.7404580000000003,-4.2748094000000005,12
0.22027588,0.11108398400000001,0.34973145,-7.374046000000001,2.2137403,-4.5114503,12
0.230896,0.10797119,0.38348390000000004,2.206107,1.9007633999999998,-1.5877863,12
0.21612549,0.10247803,0.24017334,-4.3129773,1.6564884999999998,-2.8015267999999995,12
0.22235107,0.11108398400000001,0.06408691400000001,-4.7099237,2.2900763,-4.5801525000000005,12
0.22332764,0.10760498,0.29412842,-5.473282299999999,-0.08396947,-2.8015267999999995,12
0.22558594,0.11096191400000001,0.17547607,-5.5648856,-1.3358778999999998,-2.389313,12
0.22412110000000002,0.10656738,0.30541992,-1.2977100000000001,1.0229008,-3.2137403,12
0.22668457,0.10784912,0.16894531,-2.9847328999999996,1.9236640999999999,-3.1450381000000003,12
0.22631836,0.11065674,0.30084229999999995,-3.946565,0.53435117,-2.6412212999999998,12
0.22375488,0.10583496,0.27105713,-1.7862595000000001,1.4427481000000002,-3.9694656999999998,12
0.22576904,0.10559082,0.17834473,-2.129771,0.6335878,-4.6488547,12
0.22369385,0.105285645,0.27752686,-3.923664,1.5114504,-4.091603299999999,12
0.22320557,0.11547851599999999,0.3272705,-3.1221373,0.78625953,-4.4503818,12
0.21960449,0.10888672,0.23034668,1.1832061000000003,1.648855,-1.9847328999999998,12
0.21380615,0.10626221,0.21771239999999997,0.8778626,2.053435,-2.0839694,12
0.22698975,0.11175537,0.14813232,-0.6870229,1.3129771000000001,-0.90076333,12
0.21398926,0.10357666,0.045776367000000005,0.67175573,1.0458015,-2.7099237,12
0.21990967,0.10412598,0.16546631,2.3740457999999998,2.5038167999999996,-1.4198473999999999,12
0.22363281,0.11425781,0.09814453,-1.8778626,3.9007633000000004,-1.519084,12
0.21972656,0.10253906,0.113098145,0.9694656999999999,3.5419848,-2.832061,12
0.23480225,0.11260986,0.14227295,-0.40458015,1.7862595000000001,-2.7251909,12
0.22949219,0.107421875,0.16796875,-0.65648854,2.7175572,-2.2900763,12
0.23181152,0.1149292,0.29431152,1.2290076,2.2519082999999998,-1.1679389999999998,12
0.23065186,0.11743164,0.25311279999999997,-0.9694656999999999,1.480916,-4.3206105,12
0.22412110000000002,0.10504150400000001,0.16528320000000002,0.2977099,1.8625953999999998,-3.534351,12
0.22814941,0.11968994,0.32611084,-2.9312978,2.6641220000000003,-3.129771,12
