Acc_X,Acc_Y,Acc_Z,Gyr_X,Gyr_Y,Gyr_Z,Label
0.06927489999999999,0.32305908,0.09332275400000001,-14.496182999999998,-7.091603299999999,-13.748092000000002,17
0.06719971,0.27319336,0.068847656,-13.763359,-11.78626,-2.0229008,17
0.10003662,0.29974365,0.07019043,0.24427481,0.22900763,-14.480916,17
0.12506104,0.34631348,0.08746338,-9.061069,-2.793893,-20.923664000000002,17
0.13562012,0.35443115,0.10510254,-4.5648856,-21.274809,-12.427481,17
0.12573242,0.28411865,0.09539795,-4.152672,-49.10687,-4.9694657,17
0.11773682,0.21087646,0.06738281,19.229008,-45.091602,-10.541985,17
0.15466309,0.20819092,0.08691406,-11.679389,-45.366413,-31.67939,17
0.14111328,0.23187256,0.093566895,-19.343512,-63.83206,-32.580154,17
0.1274414,0.20336914,0.13970947,-14.732823999999999,-75.16794,-19.458015,17
0.093688965,0.16534424,0.07971191400000001,-16.221375,-77.0458,-8.664123,17
0.07043457,0.13995361,0.070373535,-23.740458,-84.01527,-2.9160306,17
0.048706055,0.12786865,0.06774902,-32.55725,-83.69466,-4.335878,17
0.030761719,0.12231445,0.06726074,-40.030533,-74.99235999999999,-6.4503818,17
0.024780273,0.14154053,0.06311035,-51.251907,-65.54961999999999,-6.374046,17
0.018310547,0.17919922,0.07336426,-45.251907,-57.114502,-7.1755724,17
0.011779785,0.20800781,0.08264160000000001,-39.923664,-45.473279999999995,-6.2671757,17
0.009094238000000001,0.23327637,0.08251953,-26.89313,-32.870228000000004,-3.0229008,17
0.005004883,0.24389648,0.08520508,-18.114504,-20.091601999999998,0.2519084,17
-0.0029296879999999997,0.25720215,0.0847168,-16.786259,-9.106871,-3.5419848,17
-0.002807617,0.29382324,0.06536865,-18.297710000000002,-2.5038167999999996,-10.656488000000001,17
0.035888672,0.3897705,-0.009521484,11.832061,4.885496,1.1908396,17
0.042114257999999995,0.39874268,0.019592285,3.59542,21.358778,-9.656488000000001,17
0.049438477,0.37872314,0.07971191400000001,-3.8015267999999995,6.526717700000001,-29.328245000000003,17
0.047668457000000004,0.35028076,0.15234375,-7.5267177,-5.8320612999999994,-52.343509999999995,17
0.05694580000000001,0.3289795,0.10510254,41.038166,23.984734,-18.396946,17
0.08911133,0.29083252,0.09576416,12.969465,26.694656,-16.045801,17
0.06896973,0.23913574,0.11059569999999999,23.709923,40.549618,-12.465649,17
0.08380127,0.24487305,0.14422607,28.770992,57.77099200000001,-3.5114503,17
0.08013916,0.25402832,0.14624023,25.664122,67.061066,10.633588,17
0.068359375,0.21728516,0.13519287,50.290077000000004,78.08397,28.496183000000002,17
0.059631348,0.18029785,0.1161499,49.435116,86.16794,30.29771,17
0.053649902,0.15405273,0.09588623,51.671757,97.96183,36.870228000000004,17
0.057800292999999996,0.14678955,0.07446289,50.694656,106.15267,39.412212,17
0.053100586,0.12646484,0.06604004,56.137405,108.87786000000001,45.870228000000004,17
0.04833984400000001,0.12371826,0.06829834,44.732826,104.47328,49.755726,17
0.062438965,0.13934326,0.05718994,42.12214,94.70992,47.91603,17
0.057922363,0.16864014,0.06695557,46.725190000000005,79.59541999999999,50.076336,17
0.06048584,0.19036865,0.080200195,33.320609999999995,68.503815,40.748093,17
0.06829834,0.22332764,0.08673096,27.656488,47.748093,29.450382,17
0.06915283,0.24206543,0.07971191400000001,22.610687,32.694656,16.732824,17
0.09100342,0.26257324,0.0881958,8.534351,23.57252,-1.3587786,17
0.09857178,0.30505370000000004,0.09832764,-2.6183207000000004,-0.32824427,-13.450381,17
0.10412598,0.28088379999999996,0.090026855,-8.351144999999999,-19.12977,-11.549619,17
0.115356445,0.2682495,0.08001709,-15.267176000000001,-34.274809999999995,-23.328245000000003,17
0.12487793,0.28564453,0.07580566400000001,-24.389313,-48.015266,-34.76336,17
0.13116455,0.30322266,0.08312988,-23.145039,-45.992367,-38.862595,17
0.1352539,0.27734375,0.080200195,-27.12977,-53.900764,-26.57252,17
0.14904785,0.19232178,0.055664062,-8.122137,-45.755726,-24.709923,17
0.15435791,0.20007324,0.05810547,-27.603053999999997,-50.53435,-28.335878000000005,17
0.12652588,0.19683838,0.059631348,-22.435114000000002,-54.137405,-19.06107,17
0.10504150400000001,0.1743164,0.07067871,-19.625954,-60.809162,-11.0992365,17
0.044128417999999996,0.15496826,0.058410645,-38.580154,-67.29008,-13.297709,17
0.03527832,0.16253662,0.051513672,-41.923664,-64.36641,-15.0,17
0.03161621,0.17718506,0.05682373,-42.053436,-55.83206,-14.419847500000001,17
0.042114257999999995,0.19445801,0.049072265999999996,-34.389313,-42.190838,-10.152672,17
0.038085938,0.2553711,0.0637207,-32.221375,-13.343511999999999,-10.977099,17
0.042175292999999996,0.27313232,0.05206299,-25.954199,-6.442748,-4.625954,17
0.025756836,0.2833252,0.02722168,-11.267176,-2.076336,7.0229006,17
0.046936035,0.3453369,-0.06604004,4.7709923,7.0076336999999995,7.8702292,17
0.08087158,0.38165283,-0.04901123,17.343512,26.93893,8.839694999999999,17
0.08477783,0.3381958,0.03466797,-0.54198474,-7.923664,-21.221375,17
0.06921387,0.2991333,0.15124512,-35.190838,-26.305344,-54.709922999999996,17
0.06988525400000001,0.28674316,0.08062744,14.763359,-18.786259,-46.458015,17
0.105285645,0.27386475,0.095214844,-2.1755726,-24.160304999999997,-42.091602,17
0.0803833,0.29205322,0.12182617,-20.06107,-5.068702,-31.854961,17
0.07739258,0.31097412,0.16040039,-1.6793894,16.549618,-15.442748000000002,17
0.074157715,0.28729248,0.16485596,20.038168,41.954197,8.496183,17
0.061340332000000004,0.2675171,0.12646484,40.53435,52.992367,18.816793,17
0.05505371,0.20507812,0.117004395,51.15267,77.183205,27.290077,17
0.04852295,0.16870117,0.101745605,54.091602,86.48855,35.06107,17
0.03942871,0.14050293,0.09033203,56.480915,87.29008,36.351147,17
0.030822753999999997,0.11932373,0.07489014,42.572517,96.16031,36.190838,17
0.025634766,0.119140625,0.0680542,45.641220000000004,101.496185,38.229008,17
0.030090332,0.12994385,0.07043457,42.541985,105.85496499999999,37.53435,17
0.042785645,0.15057373,0.07556152,41.526720000000005,106.8855,35.564884,17
0.05517578,0.1899414,0.08636474599999999,28.08397,102.12214,25.358778,17
0.06555176,0.23803711,0.10095215,25.114504,84.91603,22.526718,17
0.0690918,0.24963379,0.10015869,30.06107,63.84733000000001,25.908398000000002,17
0.07446289,0.22839355,0.12017822,32.435116,40.427483,12.389313000000001,17
0.096191406,0.25305176,0.10662842,5.8015265,19.442749,-12.503817,17
0.10821533,0.289917,0.10449219,-7.160305499999999,-10.7786255,-26.267176,17
0.11639404,0.29376220000000003,0.10498047,-22.396946,-34.694656,-40.114502,17
0.12805176,0.29754640000000004,0.10894775400000001,-36.84733,-62.969467,-51.21374,17
0.12963867,0.31323242,0.10900879,-40.51145,-72.96183,-54.946564,17
0.14038086,0.3012085,0.13055419999999998,-48.038166,-84.908394,-48.76336,17
0.12207031,0.24688720000000003,0.072143555,-31.366413,-81.69466,-50.16794,17
0.14422607,0.21551514,0.060791015999999996,-18.625954,-73.87023,-47.25954,17
0.15246582,0.21435547,0.06439209,-27.137404999999998,-73.38931,-41.038166,17
0.12762451,0.20257568,0.0637207,-21.06107,-75.33588,-28.007633000000002,17
0.113342285,0.1763916,0.07342529,-16.541985,-74.29008,-13.7786255,17
0.09655762,0.15393066,0.07006836,-26.29771,-92.10687,-3.6870230000000004,17
0.06671142599999999,0.13989258,0.08764648400000001,-35.15267,-99.73283,-5.015267400000001,17
0.05303955,0.1439209,0.06359863,-37.480915,-97.46565,-1.5496184,17
0.04260254,0.14868164,0.054870605,-44.366413,-98.229004,-2.687023,17
0.019958496000000003,0.15747070000000002,0.072143555,-48.496179999999995,-93.26717,-10.488549,17
0.012268066000000001,0.206604,0.07543945,-53.38168,-88.56489,-15.465648999999999,17
0.007995606,0.22497559,0.0881958,-44.0,-75.175575,-11.396947,17
0.002075195,0.26245117,0.085998535,-41.564884,-66.64121999999999,-13.068703,17
-0.005615234,0.26812744,0.08355713,-29.931296999999997,-50.198475,-0.77099234,17
-0.022705077999999997,0.27911377,0.072265625,-33.969467,-42.87786,-4.809159999999999,17
-0.026611327999999997,0.29632568,0.05596924,-29.778625,-23.137404999999998,-15.541985,17
0.009765625,0.36920166,0.01940918,11.442748,8.580152499999999,1.8931297999999999,17
0.025695799999999998,0.35498047,0.06188965,-6.145038,9.21374,-18.122137,17
0.05078125,0.31005859999999996,0.07733154,41.44275,13.656488000000001,-28.167938,17
0.07019043,0.26470947,0.09423828,36.89313,22.206106,-16.419847,17
0.05645752,0.2672119,0.14929199,15.969465,31.282442,-12.343511999999999,17
0.07263183599999999,0.31225586,0.18493652,-2.0229008,67.45038000000001,-7.068702,17
0.08160400400000001,0.3217163,0.19830322,9.480916,80.01527,5.1221375,17
0.086120605,0.2821045,0.14898682,44.358779999999996,83.31298000000001,28.343512,17
0.08422851599999999,0.22607422,0.11560058599999999,65.24428,102.55725,46.48855,17
0.052612305,0.16741943,0.08679199,70.16794,113.65648999999999,46.519085,17
0.055419922,0.13946533,0.08984375,68.84733,114.29008,50.503820000000005,17
0.04083252,0.11425781,0.06628418,62.290077000000004,113.80916,48.55725,17
0.041992188,0.101379395,0.07421875,58.580154,115.29771000000001,45.381679999999996,17
0.0435791,0.11419678,0.07501221,42.10687,102.381676,37.809162,17
0.05615234400000001,0.14099121,0.07775879,42.671757,90.48855,36.160305,17
0.06719971,0.18133545,0.10253906,30.519083000000002,77.9771,32.618320000000004,17
0.07165527,0.22381592,0.12640381,24.335878,63.35878,26.541984999999997,17
0.07580566400000001,0.23474121,0.10620117,27.374046000000003,42.870228000000004,26.992366999999998,17
0.06982422,0.21533203,0.10180664,21.793894,23.175573,16.847328,17
0.08618164,0.24145508,0.12347412,-4.0610685,9.274809,-6.3587785000000006,17
0.09704589999999999,0.27294922,0.11431885,-13.961832000000001,-17.244274,-18.251910000000002,17
0.09906006,0.27355957,0.10406494,-25.564885999999998,-32.06107,-20.335878,17
0.113464355,0.27545166,0.12084961,-26.045801,-37.954197,-27.152671999999995,17
0.13916016,0.30682373,0.12725830000000002,-34.755726,-33.328243,-34.732826,17
0.15057373,0.31781006,0.11328125,-26.877863,-43.0,-27.526718,17
0.15472412,0.2748413,0.09338379,-16.740458,-35.297709999999995,-21.885496,17
0.17675781,0.23626709,0.10595703,2.2671757,-31.801527,-23.389313,17
0.19122314,0.21966553,0.07800293,-9.358779,-40.297709999999995,-24.648854999999998,17
0.15704346,0.19189453,0.06988525400000001,-14.282442999999999,-51.0,-16.908398000000002,17
0.12957764,0.16070557,0.08288574,-24.778625,-71.25954399999999,-4.633588,17
0.08325195,0.14184570000000002,0.07843017599999999,-45.129771999999996,-89.70229,-9.396947,17
0.05810547,0.14459229,0.07287598,-51.10687,-90.47328,-7.9389315,17
0.043273926,0.14855957,0.07580566400000001,-58.335876,-85.48855,-10.244275,17
0.012817383,0.15960693,0.08428955,-60.37404599999999,-78.59541999999999,-14.977098999999999,17
0.005004883,0.17504883,0.07580566400000001,-47.251907,-68.25191,-13.59542,17
-0.000732,0.19586182,0.08325195,-46.412212,-54.450382,-13.793892999999999,17
-0.007873535,0.21643066,0.067871094,-37.91603,-48.923664,-14.877863,17
-0.003662109,0.20550537,0.07098389,-22.068703,-29.946565999999997,-6.816794,17
-0.006774901999999999,0.21618652,0.057495117000000005,-23.015266,-16.091601999999998,-5.854962,17
0.00769043,0.26031494,0.048034667999999996,-23.48855,-11.984733,-13.114504,17
0.044616699999999995,0.36395264,-0.00793457,-3.0305343,5.145038,-17.824427,17
0.042541504,0.33880615,0.1026001,6.839694500000001,30.419846999999997,0.9236641,17
0.07781982400000001,0.38708496,0.103637695,-13.580152499999999,0.97709924,-23.809160000000002,17
0.054870605,0.34033203,0.15881348,-46.328243,-10.893129,-55.343509999999995,17
0.061645507999999995,0.3314209,0.07910156,4.1603055,-1.480916,-41.328243,17
0.09741211,0.28540040000000005,0.09301758,38.15267,31.076335999999998,4.1297708,17
0.09991455,0.30432129999999996,0.11547851599999999,7.068702,48.267174,-7.206106699999999,17
0.08856201,0.27349854,0.1821289,34.10687,64.54961999999999,0.41221374,17
0.10144043,0.28198242,0.18884277,34.961834,86.900764,10.015267,17
0.08886719,0.29571533,0.16400146,45.503820000000005,91.27481,21.610687,17
0.09222412,0.24310303,0.14343262,50.679390000000005,108.41984599999999,32.732826,17
0.07379150400000001,0.22711182,0.11114502,51.862595,111.83968999999999,36.0,17
0.059387207000000004,0.20867919999999998,0.1083374,56.0229,125.35113999999999,51.526720000000005,17
0.04248047,0.17529297,0.060424805,69.183205,130.51908999999998,62.938930000000006,17
0.03125,0.12005615,0.07281494,79.92367,136.70993,64.31298000000001,17
0.026489257999999998,0.10534668,0.051086426,85.25954399999999,139.84734,59.709922999999996,17
0.027038574,0.09838867,0.05242919999999999,82.12977,138.61068999999998,60.62595400000001,17
0.028625487999999998,0.11517334,0.055236815999999994,79.67175,133.58778,57.099236,17
0.06188965,0.13684082,0.060424805,78.30534,113.58015400000001,52.244274,17
0.045654297,0.16503906,0.077941895,65.67939,90.30534,42.748093,17
0.06628418,0.17993164,0.09014892599999999,34.900764,64.05344000000001,24.641222,17
0.089904785,0.20831299,0.10687256,3.7099237,40.648853,-5.519083999999999,17
0.11676025400000001,0.29986572,0.14398193,-25.137404999999998,17.358778,-28.740458,17
0.11413574,0.32818604,0.13201904,-2.2137403,-29.786259,-23.290077,17
0.113464355,0.2514038,0.11260986,-4.1984735,-35.007633,-24.91603,17
0.13946533,0.25286865,0.11767578,-19.748089999999998,-44.480915,-47.137405,17
0.14556885,0.3102417,0.117004395,-52.198475,-65.45038000000001,-53.335876,17
0.16748047,0.2949829,0.12609863,-44.709922999999996,-64.38931,-54.35878,17
0.1116333,0.1906128,0.055847167999999996,-14.549619,-44.23664,-12.007633,17
0.08532715,0.14154053,0.05871582,-10.824428,-61.412212,-0.022900764,17
0.062561035,0.11236572,0.052490234000000004,-13.9007635,-60.23664,2.0687022,17
0.053771973,0.08392334,0.05230713,-27.08397,-69.52672,-4.7709923,17
0.033569336,0.09075928,0.04724121,-43.290077000000004,-71.96947,-4.2290077,17
0.028076172000000003,0.12261963,0.05316162,-67.58015400000001,-70.19847,-8.030535,17
0.012573242,0.17712402,0.033996582000000004,-74.099236,-81.25954399999999,-20.633587,17
-0.008178711,0.23272705,0.021972656,-102.55725,-91.381676,-44.671757,17
-0.013671875,0.31011963,0.013183594,-86.64886,-82.28244000000001,-40.251907,17
-0.009521484,0.31518555,0.030212402000000003,-22.687023,-54.984733999999996,-19.503817,17
0.019104003999999997,0.32757568,0.048095703,-12.473283,-31.839695000000003,-23.57252,17
0.053527832000000004,0.3310547,0.107910156,-3.4274809999999998,7.7175574000000005,-24.603054,17
0.0871582,0.28979492,0.1819458,0.9312976999999999,23.900763,-12.374044999999999,17
0.09484863,0.40258790000000005,0.029541016,26.824427000000004,5.3053436,-27.664121999999995,17
0.0836792,0.29595947,0.15808105,-49.74046,-4.7328243,-38.328243,17
0.057678223,0.3314209,0.10522461,-3.6030532999999996,20.984734,-16.923664000000002,17
0.09533691400000001,0.19763184,0.12158203,61.38168,30.366413,16.038168,17
0.12731934,0.22009277,0.16021729,22.221375,-4.5114503,-3.946565,17
0.11193848,0.25604248,0.1694336,15.236641,31.404581,0.28244275,17
0.12487793,0.31237793,0.22076416,28.282442,44.954197,6.4351144,17
0.10516357400000001,0.30560303,0.13677979,26.885496000000003,45.732826,19.832062,17
0.078308105,0.2592163,0.10662842,38.23664,72.33588,38.931297,17
0.06060791,0.20220947,0.09411621,42.732826,86.618324,45.839695,17
0.055114746,0.16363525,0.07745361,48.969467,93.83969,49.48855,17
0.0435791,0.13018799,0.061157227,41.229008,88.53435,42.351147,17
0.03491211,0.10870361,0.057556152,39.129771999999996,85.54961999999999,42.595420000000004,17
0.03527832,0.11370849599999999,0.045898438,33.51145,83.68701999999999,39.15267,17
0.039123535,0.1262207,0.047180176,30.23664,77.9542,34.702290000000005,17
0.043273926,0.14672852,0.05267334,28.030534999999997,71.25954399999999,31.221375,17
0.05316162,0.16369629,0.058288574,18.236639999999998,56.862595,22.175573,17
0.061340332000000004,0.20587158,0.095214844,12.893129,46.15267,15.389313000000001,17
0.06970215,0.24780273,0.06024169999999999,2.5496182000000003,23.839695000000003,2.2824428,17
0.08355713,0.2939453,0.08160400400000001,2.7633588,13.946565,-7.137404400000001,17
0.09661865,0.34692383,0.12628174,-3.40458,-9.557252,-15.603053,17
0.07885742,0.3154297,0.12414551,9.7404585,-32.030533,-9.122137,17
0.09075928,0.24023438,0.12725830000000002,2.557252,-48.709922999999996,-20.541985,17
0.10571289,0.24987793,0.11364746,-17.801527,-62.52672,-49.076336,17
0.10028076,0.27270508,0.11871338,-28.51145,-69.48092,-54.870228000000004,17
0.11907959,0.24230957,0.12243652,-20.93893,-70.72519,-49.87786,17
0.13928223,0.21948242,0.12805176,-27.816793,-71.9771,-55.267174,17
0.16217041,0.23175049,0.13391113,-48.328243,-60.870228000000004,-66.40458000000001,17
0.18341064,0.27807617,0.16113281,-57.664124,-63.519085,-61.22900799999999,17
0.14959717,0.27539062,0.11651611,-36.839695,-65.64121999999999,-49.068703,17
0.11285400400000001,0.2244873,0.076293945,-17.0,-59.17556999999999,-24.534351,17
0.099731445,0.16351318,0.06109619,-15.7786255,-52.068703,-4.6412214999999994,17
0.06585693,0.13238525,0.039855957000000004,-15.282442999999999,-62.549618,-1.5114504,17
0.02746582,0.10681152,0.028747559,-39.961834,-64.37405,-6.7328243,17
0.012329102,0.15258789,0.021240234,-62.083969999999994,-62.267174,-14.755725,17
-0.001403809,0.16448975,0.0357666,-45.053436,-73.56489,-16.503817,17
-0.016479492,0.16870117,0.037841797,-46.221375,-72.41984599999999,-29.80916,17
-0.01763916,0.17370605,0.050964355,-40.587788,-67.0229,-34.374046,17
-0.004272461,0.20153809,0.05871582,-23.702289999999998,-61.664124,-30.244274,17
0.009033203,0.23901367,0.063964844,-27.305344,-46.381679999999996,-30.656488,17
0.018981934,0.29003906,0.07983398400000001,-29.351145000000002,-35.931297,-19.435114000000002,17
0.051940917999999996,0.36523438,0.13067627,-45.435116,-5.816794,-17.068703,17
0.06121826,0.34387207,0.16729736,-15.549619,8.526717,-5.3129773,17
0.047058105,0.413208,0.10589599599999999,16.335878,14.78626,-8.091603,17
0.038391113,0.33178709999999995,0.14178467,-21.595419,16.305344,-10.465649,17
0.07196045,0.28338623,0.11303711,32.076336,28.67939,1.8854961,17
0.07873535,0.20336914,0.1239624,81.33588,35.404579999999996,24.694656,17
0.09698486,0.20892334,0.12023926,38.351147,22.442749,11.969465,17
0.08764648400000001,0.23687744,0.1618042,28.67939,35.374046,4.4198474999999995,17
0.10266113,0.30523682,0.18676758,13.419847500000001,49.961834,1.1297709999999999,17
0.09802246,0.31750488,0.16137695,13.992367000000002,57.954197,10.366412,17
0.080566406,0.2756958,0.12249756,37.503820000000005,71.73283,29.557251,17
0.04650879,0.22601318,0.09106445,53.244274,86.58015400000001,46.572517,17
0.06573486,0.17120361,0.08605957,54.748093000000004,96.19084000000001,51.503820000000005,17
0.05230713,0.14160156,0.13031006,44.335876,83.541985,46.244274,17
0.042907715,0.10894775400000001,0.071777344,40.267174,76.87786,44.908398,17
0.042785645,0.07946777,0.07702637,24.503817,64.541985,33.9771,17
0.04058838,0.07928467,0.08343506,6.8702292,58.78626,29.450382,17
0.048828125,0.122924805,0.070251465,-2.2519082999999998,47.381679999999996,23.969465,17
0.05102539,0.18518066,0.07849121,-10.274809,32.503820000000005,22.801527,17
0.05340576,0.23693848,0.09075928,-2.7251909,29.641221999999996,25.748089999999998,17
0.06616211,0.2814331,0.10296631,-5.59542,17.42748,7.328244000000001,17
0.079589844,0.32208252,0.0925293,-1.5954198999999998,4.1679387000000006,-11.595419999999999,17
0.1015625,0.32910156,0.08782959,12.412213000000001,-11.801527,-14.938931,17
0.08636474599999999,0.27661133,0.08648682,-2.29771,-34.068703,-17.519083,17
0.10308838,0.24078369,0.08160400400000001,10.465649,-42.969467,-14.877863,17
0.13500977,0.23266602,0.06414795,14.946565,-52.938930000000006,-22.152672,17
0.14135742,0.21661377,0.11871338,-10.183207000000001,-70.46565,-32.702290000000005,17
0.1459961,0.21282959,0.17089844,-28.946565999999997,-81.45038000000001,-42.282444,17
0.13806152,0.26361084,0.17364502,-57.49618,-86.51908,-54.14504,17
0.16082764,0.30645752,0.1640625,-30.29771,-73.78626,-56.37404599999999,17
0.15979004,0.29754640000000004,0.13775635,-21.984734,-72.0458,-49.343509999999995,17
0.11779785,0.23260498,0.09338379,-10.358779,-75.68701999999999,-34.76336,17
0.09906006,0.18164062,0.08734131,-9.389313000000001,-65.58015400000001,-17.969465,17
0.06695557,0.14642334,0.06726074,-10.0992365,-82.67175,-9.450381,17
0.029907227,0.11236572,0.06335449,-27.358778000000004,-75.1145,-11.419847500000001,17
0.005126953,0.12426758,0.050476074,-51.870228000000004,-69.9542,-14.80916,17
-0.012878418,0.13720703,0.049987792999999996,-59.59542,-76.70229,-26.793894,17
-0.038330078,0.20953369,0.031433105,-86.64121999999999,-80.94655999999999,-53.916030000000006,17
-0.028869628999999997,0.19934082,0.053466797,-50.312977000000004,-52.633587,-37.587788,17
-0.007080078,0.22088623,0.07330322,-33.717556,-48.961834,-35.725190000000005,17
0.013366699,0.23034668,0.061706542999999996,-10.503817,-29.145039,-19.564885999999998,17
0.022949219,0.27447509999999997,0.04852295,-3.2290077,-20.694656,-11.0,17
0.034118652,0.29003906,0.06072998,-7.038167999999999,11.427481,0.71755725,17
0.06567383,0.29431152,0.13012695,16.87023,72.16031,33.206109999999995,17
0.09222412,0.32562256,0.15905762,-2.0,14.427481,-14.59542,17
0.028503418,0.40167236,0.09112549,-14.137404,10.526717,-9.076336,17
0.036376953,0.33203125,0.15576172,-17.183207,37.045803,-25.442749,17
0.05871582,0.27893066,0.07678223,84.79389,52.916030000000006,26.435114000000002,17
0.09893799,0.21850586,0.1171875,52.114502,29.89313,24.030535,17
0.08258057,0.20281982,0.17224121,8.946565,24.832062,-10.656488000000001,17
0.10205078,0.27319336,0.25219727,-4.7099237,79.64886,-1.9083970000000001,17
0.11285400400000001,0.30621338,0.21008301,-2.2900763,63.870228000000004,4.068702,17
0.072753906,0.2874756,0.15124512,32.030533,66.98473,25.0,17
0.063964844,0.20623779999999997,0.12976074,48.114502,82.84733,47.625954,17
0.049072265999999996,0.16656494,0.097717285,44.778625,101.41984599999999,50.725190000000005,17
0.047668457000000004,0.14141846,0.078125,50.809162,98.39695,47.297709999999995,17
0.03765869,0.12188721,0.06225586,44.748093,98.0687,44.709922999999996,17
0.031555176000000004,0.10095215,0.047729492000000005,46.633587,100.19084000000001,45.267174,17
0.03149414,0.11102295,0.03955078,41.816795,99.16031,41.282444,17
0.055725098,0.13085938,0.054748535,35.633587,91.98473,36.251907,17
0.058044434000000006,0.17718506,0.052612305,-8.2213745,60.137405,8.198473,17
0.053833007999999995,0.28607178,0.03753662,-11.358779,34.969467,-8.954199000000001,17
0.04736328,0.30499268,0.060424805,18.374046,9.641221,2.0610688,17
0.05267334,0.30456543,0.08953857400000001,24.442749,7.9770994,3.6564887,17
0.059814453,0.32702637,0.12249756,23.435114000000002,-6.4656487,-2.183206,17
0.05712890599999999,0.30065918,0.12780762,25.38168,-14.442748000000002,0.22137405,17
0.07824707,0.2512207,0.13378906,2.9160306,-31.648854999999998,-17.221375,17
0.07788086,0.25408936,0.121154785,-5.5648856,-45.885498,-34.908398,17
0.08380127,0.27142334,0.10388183599999999,-15.442748000000002,-45.267174,-42.870228000000004,17
0.11053467,0.25701904,0.11834717,0.10687023,-42.87786,-35.732826,17
0.12164307,0.21142578,0.110839844,-6.7251906,-48.9771,-38.51145,17
0.14007568,0.22241211,0.125,-14.114504,-40.931297,-43.23664,17
0.16583252,0.25341797,0.117126465,-22.10687,-39.755726,-44.320609999999995,17
0.14624023,0.24542236,0.11187744,-14.61832,-60.396946,-35.717556,17
0.11859131,0.19506836,0.10699463,-4.236641400000001,-58.87786,-22.854961,17
0.09063721,0.16003418,0.05432129,-20.366413,-66.03817,-13.122137,17
0.06689453,0.14508057,0.06427002,-11.801527,-80.63359,-1.7862595000000001,17
0.04107666,0.12237549,0.037719727,-29.022902000000002,-67.15267,2.076336,17
0.025268555,0.14385986,0.047180176,-48.46565,-62.076336,-4.0229006,17
0.022460938,0.16552734,0.06927489999999999,-34.603054,-74.19084000000001,-4.816794,17
-0.000122,0.17456055,0.06298828,-43.374046,-72.99235999999999,-14.183207000000001,17
-0.001159668,0.17816162,0.06781006,-31.351145000000002,-57.320609999999995,-17.343512,17
0.003845215,0.22680664,0.06365967,-41.687022999999996,-61.396946,-33.992367,17
0.0013427729999999998,0.25048828,0.06921387,-37.82443,-57.541985,-30.709923,17
0.006713866999999999,0.29321290000000005,0.06951904,-32.603054,-47.25954,-20.114504,17
0.022094727,0.33343506,0.08319092,-15.541985,-19.977098,-4.7328243,17
0.024353027000000003,0.3170166,0.16662598,-17.183207,4.961832,-6.7175574000000005,17
0.02319336,0.40563965,0.13153076,1.221374,-9.664123,-17.969465,17
-0.00970459,0.35717773,0.103515625,-19.748089999999998,-13.633588,-37.206109999999995,17
0.03363037,0.31378174,0.081970215,17.89313,21.030535,-16.465649,17
0.054992676,0.2614746,0.078308105,27.122137,41.969467,-5.633588,17
0.07354736,0.21240234,0.14447021,35.679390000000005,23.57252,0.7633588000000001,17
0.059631348,0.25836182,0.1618042,10.412213000000001,25.641222,-10.748092,17
0.07067871,0.27581787,0.20812988,12.030535,71.39695,8.587786999999999,17
0.08581543,0.29101562,0.21386719,16.419847,74.80915999999999,22.122137,17
0.0647583,0.25708008,0.13183594,42.290077000000004,98.51145,45.778625,17
0.06298828,0.19598389,0.11779785,66.0229,116.21373999999999,62.61832,17
0.03881836,0.15515137,0.07788086,69.31298000000001,119.07633,61.221375,17
0.030517577999999997,0.12420654,0.0690918,71.00764000000001,115.64121999999999,60.16794,17
0.026977539,0.09698486,0.10522461,52.47328,100.65649,50.55725,17
0.026977539,0.09136963,0.07080078,23.42748,84.64121999999999,36.78626,17
0.044067382999999995,0.14691162,0.08868408,2.9770992,68.39695,22.358778,17
0.043762207000000004,0.20874023,0.09417724599999999,-17.671754999999997,42.84733,6.0992365,17
0.04156494,0.28686523,0.101623535,-11.022901,36.335876,8.022901,17
0.039123535,0.2911377,0.09606933599999999,4.587786,28.51145,6.412214,17
0.06103515599999999,0.28375244,0.087890625,17.89313,33.961834,1.7251908999999999,17
0.10321045,0.3067627,0.060668945,23.687023,25.06107,-5.335878,17
0.10028076,0.28839109999999996,0.06585693,19.335878,-8.076336,-10.236641,17
0.08514404,0.24121094,0.039001465,6.9923663000000005,-17.068703,-6.0610685,17
0.10546875,0.2208252,0.053344727,2.3664122000000005,-35.625954,-24.580153,17
0.12390137,0.24560547,0.113464355,-20.633587,-48.526720000000005,-36.038166,17
0.122558594,0.27685547,0.15228271,-27.183207,-51.809162,-46.435116,17
0.14923096,0.3069458,0.22021484,-38.137405,-61.32824300000001,-48.045803,17
0.13854979999999997,0.30352783,0.15264893,-28.038168,-60.045803,-41.412212,17
0.15081787,0.25500488,0.14727783,-13.625955,-57.587788,-30.931296999999997,17
0.14050293,0.20397949,0.08630371,-2.687023,-54.748093000000004,-25.38168,17
0.10925293,0.16845703,0.07116699,-16.923664000000002,-50.206109999999995,-19.587785999999998,17
0.095703125,0.15917969,0.060424805,-24.229008,-45.618320000000004,-3.6793892,17
0.064575195,0.14172363,0.064331055,-3.4809160000000006,-57.801525,16.396946,17
0.041748047,0.12799072,0.064331055,-27.984734000000003,-49.305344,5.10687,17
0.025756836,0.12554932,0.07135010000000001,-26.984734000000003,-47.44275,6.0458016,17
0.009338379,0.16564941,0.056518555,-56.25954,-59.610687,-16.534351,17
0.003112793,0.18829346,0.05694580000000001,-38.74046,-48.435116,-8.488549,17
-0.011901856,0.22186279999999997,0.030395507999999998,-43.618320000000004,-47.732826,-18.450382,17
-0.002075195,0.20257568,0.052978515999999996,-20.022902,-34.23664,-10.045800999999999,17
0.010070800999999999,0.22753906,0.083984375,-24.175573,-13.076336,-14.511451000000001,17
0.03881836,0.32720947,0.049621582000000004,-10.7404585,1.4045801000000002,-1.0687023,17
0.054016113,0.3843994,0.07135010000000001,28.259542,42.114502,18.366413,17
0.09350586,0.36401367,0.14923096,-7.671755999999999,32.0229,-5.40458,17
0.059936523,0.38989258,0.052734375,35.648853,-10.671756,-0.015267176,17
0.039367676000000004,0.32965088,0.12921143,-62.801525,-2.2519082999999998,-55.53435,17
0.07330322,0.30456543,0.09484863,40.717556,14.633588,-14.0,17
0.10327148400000001,0.24493408,0.13305664,4.7480917,11.938931,-19.648854999999998,17
0.07720947,0.23101807,0.13848877,4.8778625,-1.4274809,-11.862596,17
0.10205078,0.23553467,0.16198729999999997,-4.3053436,43.08397,-6.969465700000001,17
0.09606933599999999,0.25268555,0.16363525,-7.458015400000001,48.244274,-2.1068702,17
0.09027099599999999,0.25317383,0.21575928,17.89313,75.23664000000001,21.442749,17
0.06048584,0.21020508,0.11199951,42.435116,91.28244000000001,47.129771999999996,17
0.058410645,0.1640625,0.13244629,40.679390000000005,107.53435,46.572517,17
0.057250977,0.16027832,0.10516357400000001,49.045803,114.57252,55.44275,17
0.04284668,0.14611816,0.08312988,57.664124,118.58778000000001,57.809162,17
0.041809082000000004,0.1295166,0.070251465,57.633587,122.71756,58.320609999999995,17
0.046081542999999996,0.13323975,0.07873535,51.030533,116.12213999999999,54.25954,17
0.055908203,0.1461792,0.07714844,41.641220000000004,106.78626000000001,49.526720000000005,17
0.06341553,0.16400146,0.10607910000000002,21.89313,91.938934,37.93893,17
0.076171875,0.20629883,0.12158203,-12.755725,67.39695,14.145039,17
0.055358887,0.274292,0.08453369,-24.10687,13.328244,-8.412213000000001,17
0.06213379,0.30633545,0.06665039,15.610686999999999,8.671756,4.671755999999999,17
0.0725708,0.3187256,0.061584473,10.374044999999999,-8.80916,-4.0229006,17
0.06988525400000001,0.32092285,0.19458008,-2.832061,-5.9389315,-10.366412,17
0.0793457,0.28430176,0.15905762,10.053435,-20.480917,-0.9847328000000002,17
0.10253906,0.26568604,0.16235352,-1.9007633999999998,-28.053434000000003,-20.007633,17
0.11596680000000001,0.28125,0.13275146,-8.290076,-38.839695,-29.587785999999998,17
0.13940429999999998,0.28186035,0.15777588,-16.61832,-30.648854999999998,-33.870228000000004,17
0.1282959,0.23992919999999998,0.12939453,-22.564885999999998,-54.419846,-28.267176,17
0.09301758,0.17993164,0.062561035,-20.687023,-90.20611,-12.137404,17
0.07543945,0.17022705,0.053344727,-20.175573,-91.1145,-6.6870227,17
0.051330565999999994,0.14331055,0.068359375,-24.022902,-89.23664000000001,-10.236641,17
0.042053223,0.14996338,0.04925537,-31.076335999999998,-81.9313,-22.625954,17
0.043151855,0.16271973,0.06744385,-37.702290000000005,-82.01527,-29.015265999999997,17
0.041259766,0.17980957,0.07843017599999999,-33.55725,-80.52672,-30.42748,17
0.03527832,0.21948242,0.07202148400000001,-33.206109999999995,-75.183205,-30.709923,17
0.032836914,0.24688720000000003,0.06854248,-36.16794,-74.381676,-36.25954,17
0.021911621000000003,0.24371338,0.08154297,-30.839695000000003,-78.89313,-31.458015000000003,17
-0.003295898,0.27191162,0.06359863,-27.045801,-70.68701999999999,-26.557251,17
0.003540039,0.29925537,0.06896973,-41.290077000000004,-44.862595,-31.435114000000002,17
0.06896973,0.2298584,0.15216064,53.64122,53.419846,11.145039,17
0.08282471,0.27722168,0.15802002,12.78626,43.419846,-8.251908,17
0.10375976599999999,0.30389404,0.18969727,11.290076,93.78626,0.519084,17
0.10430908,0.31097412,0.18463135,31.122137,85.27481,19.61832,17
0.034606934,0.10278319999999999,0.05230713,48.473279999999995,113.07633,45.320609999999995,17
0.06958008,0.2791748,0.09594726599999999,17.015266,67.30534,19.793894,17
0.07781982400000001,0.29736328,0.09423828,17.038168,32.610687,7.114503999999999,17
0.09802246,0.2888794,0.07098389,22.694656,13.045800999999999,-1.8473282,17
0.09313965,0.26037598,0.1026001,-7.259542,-34.809162,-23.595419,17
0.11987305,0.24682617,0.11584473,-10.061069,-62.129771999999996,-36.84733,17
0.11883545,0.27716064,0.12200928,-24.763360000000002,-76.45038000000001,-54.67175699999999,17
0.1282959,0.28979492,0.11376953,-25.885496,-80.05344000000001,-64.16794,17
0.14770508,0.2871704,0.11218262,-6.3816795,-73.75572,-59.32824300000001,17
0.17913818,0.2664795,0.11047363,-8.21374,-74.21374,-61.793890000000005,17
0.18005371,0.25061035,0.15997314,-10.328244,-75.83206,-59.458015,17
0.1439209,0.21026611,0.08758545,-3.5419848,-88.33588,-53.16794,17
0.11529541,0.15997314,0.077941895,-5.6870227,-89.32061,-35.664124,17
0.09686279,0.13055419999999998,0.07305908,-17.770992,-104.52672,-29.770992,17
0.06414795,0.10290527,0.050354004,-21.641222,-106.23664,-17.877863,17
0.049743652,0.09234619,0.051391599999999996,-27.862595000000002,-103.84733,-13.748092000000002,17
0.037353516,0.08935547,0.068359375,-41.519085,-103.76335999999999,-11.030535,17
0.031982422,0.10784912,0.08520508,-46.862595,-99.770996,-10.793892999999999,17
0.030334472999999997,0.13623047,0.09472656,-58.12214,-103.099236,-14.824428,17
0.020263672,0.17980957,0.11010742,-75.87786,-104.25191,-26.06107,17
0.005065918,0.22637939999999998,0.13110352,-69.79389,-92.908394,-29.045801,17
-0.012390136999999999,0.29119873,0.12902832,-75.938934,-88.68701999999999,-30.335878000000005,17
-0.03942871,0.34179688,0.09777832,-45.992367,-79.57252,-15.305344,17
-0.04547119,0.41363525,-0.004760742,-53.83969499999999,-54.954197,-11.763359,17
-0.051330565999999994,0.41522217,0.11328125,-2.9389312000000003,21.374046,26.496183000000002,17
-0.024658202999999997,0.38775635,0.10760498,-1.648855,-25.038168,-20.335878,17
-0.042236328,0.33203125,0.088378906,-41.305344,-35.312977000000004,-84.83969,17
0.003662109,0.27758790000000005,0.07635498,25.610687,14.045801,-41.992367,17
0.041259766,0.28857422,0.053833007999999995,26.42748,19.175573,-26.10687,17
0.04736328,0.18798828,0.12768555,50.610687,35.007633,-15.198473000000002,17
0.07489014,0.2682495,0.20587158,10.938931,46.267174,-23.045801,17
0.08111572,0.31195068,0.25915527,-2.3664122000000005,59.885498,-5.7480917,17
0.08843994,0.328125,0.23040771,12.0992365,68.87023,17.137404999999998,17
0.08551025400000001,0.26177979999999995,0.15698242,29.19084,92.32825,35.450382,17
0.08032226599999999,0.21282959,0.14031982,33.839695,112.51145,46.068703,17
0.057861328,0.17120361,0.09753418,47.297709999999995,116.43511000000001,51.625954,17
0.05230713,0.14086914,0.08013916,52.702290000000005,131.32062,60.793890000000005,17
0.04144287,0.11096191400000001,0.05493164,58.969467,123.49618500000001,61.28244399999999,17
0.036621094,0.08825683599999999,0.059753417999999996,43.038166,119.0229,54.206109999999995,17
0.039794922,0.08728027,0.05810547,29.396946000000003,109.67938999999998,45.190838,17
0.043273926,0.12994385,0.054748535,25.053434,103.46565,43.404579999999996,17
0.055236815999999994,0.17150879,0.063964844,25.694656,92.35114,39.274809999999995,17
0.055908203,0.22741699,0.07739258,14.442748000000002,78.32061,39.923664,17
0.053588867000000005,0.27770996,0.093811035,2.8549618999999997,66.74809,28.725191,17
0.072753906,0.3262329,0.0960083,-11.419847500000001,26.67939,6.5419846,17
0.070129395,0.3303833,0.06011963,-0.03816794,-10.328244,-8.022901,17
0.062683105,0.31646729999999995,0.078063965,-5.5419846,-27.526718,-6.8320612999999994,17
0.061645507999999995,0.26757812,0.07678223,-2.7175572,-37.78626,-4.4274807,17
0.08752441400000001,0.24560547,0.075683594,6.0839696,-34.114502,-15.816792999999999,17
0.11224365,0.25653076,0.113098145,-18.045801,-51.931297,-25.641222,17
0.09924316400000001,0.25842285,0.12005615,-14.59542,-63.38168,-27.564885999999998,17
0.10845947,0.23663330000000002,0.12786865,-13.580152499999999,-60.50382,-34.580154,17
0.13763428,0.22406006,0.11761474599999999,-11.7404585,-56.50382,-43.419846,17
0.17144775,0.23974610000000002,0.12878418,-22.954199,-52.778625,-48.458015,17
0.16802979,0.26531982,0.12982178,-27.358778000000004,-68.65649,-39.412212,17
0.13519287,0.21820068,0.113464355,-16.08397,-75.60305,-26.152672,17
0.10650635,0.18054199,0.09057617,-17.12977,-86.62595,-19.717558,17
0.07879639,0.15789795,0.07019043,-26.977097999999998,-87.091606,-13.679389000000002,17
0.053100586,0.15283203,0.057556152,-16.435114000000002,-85.03053,-3.4122138,17
0.03894043,0.12866211,0.041992188,-22.038168,-83.099236,-0.47328246,17
0.028015137000000002,0.11920166,0.07696533,-36.297709999999995,-80.30534,-4.480916000000001,17
0.020629883,0.17315674,0.060180664,-52.55725,-75.770996,-14.992367000000002,17
0.020568848,0.17163086,0.085998535,-36.114502,-74.78626,-5.5725193,17
0.002868652,0.18884277,0.09112549,-31.23664,-69.381676,-6.2519083,17
0.010375977,0.22283936,0.08306885,-36.08397,-56.48855,-4.7938933,17
-0.00042699999999999997,0.26123047,0.06225586,-37.038166,-53.137405,-9.015267,17
-0.009216309,0.31567383,0.04937744,-38.641220000000004,-40.48855,-0.6488550000000001,17
0.01776123,0.35656738,0.06225586,-47.244274,1.6564884999999998,-0.5648854999999999,17
0.032165527,0.36761475,0.11706543,-8.427481,7.114503999999999,1.4732825,17
0.023803711,0.40472412,0.06854248,-4.335878,7.10687,-5.5801525000000005,17
0.046569824,0.33068848,0.13342285,-29.519083000000002,10.381680000000001,-34.366413,17
0.06695557,0.25976562,0.08441162,50.84733,15.030535,-0.122137405,17
0.07867432,0.17425537,0.12890625,62.015266000000004,19.404581,11.7404585,17
0.09979248,0.19189453,0.1831665,-25.946566,11.038167999999999,-16.335878,17
0.109191895,0.22680664,0.21490479,-26.458015000000003,39.06107,-4.5343513,17
0.11047363,0.30230713,0.21179199,-24.648854999999998,50.862595,-6.9847326,17
0.08288574,0.30194092,0.18090820000000002,34.85496,65.39695,28.725191,17
0.06549072,0.24835205,0.14404297,45.404579999999996,98.87786,51.923664,17
0.053833007999999995,0.19372559,0.13061523,38.656490000000005,126.74808999999999,54.755726,17
0.044006348,0.16296387,0.12463379,49.183205,123.862595,58.900764,17
0.036804199999999995,0.1274414,0.115722656,49.229008,128.98473,57.061069999999994,17
0.029663086,0.12237549,0.10845947,47.89313,126.0229,51.671757,17
0.032836914,0.12713623,0.10620117,40.580154,124.48092,48.12214,17
0.053344727,0.16290283,0.09051514,33.748093,117.778625,47.564884,17
0.072265625,0.18249512,0.11779785,34.381679999999996,101.87786,44.603054,17
0.07434082,0.20648193,0.110839844,42.885498,85.24428,48.9771,17
0.07965088,0.21197510000000003,0.15606689999999998,36.198475,60.16030500000001,47.572517,17
0.08764648400000001,0.20104979999999997,0.12915039,15.068703,33.343509999999995,28.022902000000002,17
0.09631348,0.22930908,0.13476562,-8.374044999999999,1.091603,5.931298,17
0.08813476599999999,0.28125,0.14477539,-22.297710000000002,-25.61832,-15.687023000000002,17
0.07714844,0.29797363,0.14794922,4.328244000000001,-34.984734,-14.442748000000002,17
0.09027099599999999,0.29718018,0.15447998,-3.7709922999999996,-22.412214000000002,-21.740458,17
0.10241699,0.29284668,0.1449585,-9.7786255,-28.290077,-30.351145000000002,17
0.113342285,0.28369140000000004,0.1616211,-10.175572,-25.87023,-39.374046,17
0.13171387,0.26660156,0.15795898,-10.664123,-25.595419,-48.748093,17
0.16809082,0.2456665,0.14813232,-2.961832,-11.251908,-50.923664,17
0.20587158,0.22729492,0.14721679999999998,-2.3816792999999996,-20.908398000000002,-52.938930000000006,17
0.2041626,0.19903564,0.18023682,1.9541985,-45.519085,-42.87786,17
0.16082764,0.15881348,0.09484863,-3.2137403,-73.1145,-39.793890000000005,17
0.12664795,0.14544678,0.06292724599999999,-7.4351144,-80.62595,-31.725191,17
0.08666992,0.13708496,0.064941406,-8.580152499999999,-90.19847,-17.648854999999998,17
0.0690918,0.11096191400000001,0.07397461,-1.6412214,-87.54961999999999,-6.183206,17
0.0390625,0.08123779,0.06854248,-29.114503999999997,-91.145035,-17.267176,17
0.033935547,0.107299805,0.0635376,-43.969467,-78.47328,-14.419847500000001,17
0.018127441,0.14508057,0.07360839999999999,-59.519085,-88.03053,-21.221375,17
0.014770508,0.18469238,0.09014892599999999,-65.137405,-79.061066,-21.954199,17
0.014831543,0.25335693,0.09887695,-58.015266000000004,-55.709922999999996,-17.977098,17
0.008850098,0.33007812,0.08807373,-26.786259,-37.427483,-3.9312977999999994,17
0.008422852,0.32965088,0.09320068,5.7175574000000005,-4.931298,12.091603,17
0.028076172000000003,0.30688477,0.08630371,8.2595415,10.458015,18.923664000000002,17
0.038635254,0.2571411,0.18273926,31.122137,52.030533,43.572517,17
0.07366943,0.3300171,0.09692383,-17.12977,12.389313000000001,-24.656488,17
0.028625487999999998,0.3272705,0.091796875,-7.80916,-10.938931,-23.374046,17
0.05114746,0.31884766,0.10748291,-75.061066,-9.610686999999999,-55.083969999999994,17
0.08148193,0.28839109999999996,0.05871582,23.251910000000002,-5.3129773,-6.6335880000000005,17
0.083862305,0.18353271,0.16137695,36.770992,12.091603,-0.740458,17
0.115722656,0.22790527,0.19439697,-18.374046,-4.8702292,-42.267174,17
0.12347412,0.27282715,0.17449951,-22.160304999999997,47.08397,-20.053434,17
0.15765381,0.28277588,0.22155762,29.610687,64.65649,7.8320612999999994,17
0.11688232400000001,0.21942139,0.15081787,48.267174,81.8855,27.42748,17
0.12445068,0.18859863,0.13342285,47.9771,106.99236,48.221375,17
0.08526611,0.1743164,0.10723877,39.725190000000005,120.78626000000001,54.37404599999999,17
0.09710693,0.13861084,0.10321045,42.221375,115.03817,51.08397,17
0.06842041,0.09295654,0.10577392599999999,31.709923,99.12214,45.396946,17
0.05871582,0.08270264,0.09667969,5.2061067,85.59541999999999,37.541985,17
0.05670166,0.10852051,0.10546875,-6.908396700000001,71.52672,43.251907,17
0.05432129,0.13562012,0.09796142599999999,8.748092,62.412212,38.328243,17
0.054260254,0.17407227,0.09033203,-0.3740458,43.603054,17.045801,17
0.048034667999999996,0.21960449,0.099121094,-32.0229,-5.374046,3.2595419999999997,17
0.04864502,0.35302734,0.05712890599999999,-37.053436,-17.374046,-6.7862597000000004,17
0.04058838,0.3404541,0.07464599599999999,22.694656,-4.7709923,15.389313000000001,17
0.06451416,0.2555542,0.1307373,3.7328242999999994,4.778626,6.9541984,17
0.06695557,0.26257324,0.1585083,-0.8244275,-13.732823999999999,-9.603053,17
0.09777832,0.31628418,0.15948486,7.9541984,1.3358778999999998,-15.427481,17
0.12524414,0.32513428,0.19958496,20.763360000000002,-5.671755999999999,-6.80916,17
0.12683105,0.28448486,0.20031738,-3.076336,1.8549619,-17.465649,17
0.14184570000000002,0.21228027,0.22491455,-4.40458,-15.519084,-13.702291,17
0.14916992,0.1473999,0.13262939999999998,-28.877863,-6.4503818,-48.450382,17
0.19653320000000002,0.11193848,0.13739014,-56.732826,-10.2595415,-51.12214,17
0.1942749,0.14953613,0.12231445,-31.709923,-36.099236,-34.748093,17
0.15051270000000003,0.15594482,0.12750244,24.984734,-60.091602,-24.641222,17
0.14172363,0.15161133,0.10345459,67.53435,-76.25191,-13.198473000000002,17
0.05340576,0.17694092,0.05859375,-17.664122,-69.87023,-25.549618,17
0.03149414,0.19189453,0.082214355,-15.320610999999998,-50.984734,-18.664122,17
0.01977539,0.14892578,0.10327148400000001,-21.42748,-58.62595400000001,-28.221375,17
0.010375977,0.18615723,0.10101318,-40.82443,-74.41221999999999,-51.862595,17
-0.004455565999999999,0.20837402,0.0914917,-31.48855,-80.76335999999999,-54.267174,17
0.022277832,0.17999268,0.06982422,-13.679389000000002,-45.51145,-29.671754999999997,17
0.023742676,0.23480225,0.048706055,-9.603053,-49.74046,-41.137405,17
0.039611816,0.26818848,0.030456543,4.473282299999999,-32.274809999999995,-28.67939,17
0.045288086,0.27801514,-0.004577637,3.1908397999999996,-14.755725,-16.06107,17
0.05090332,0.23529053,0.09320068,-6.4198474999999995,1.091603,-5.0458016,17
0.08374023400000001,0.23291016,0.12664795,-13.961832000000001,-8.282442999999999,-21.145039,17
0.07672119,0.36883545,0.021362305,-25.190839999999998,7.160305499999999,-11.2595415,17
0.0836792,0.36322020000000005,0.17785645,-74.12214,-2.519084,-20.641222,17
0.10205078,0.34173584,0.21649169999999998,7.969465700000001,28.358778000000004,13.839695,17
0.122924805,0.29962158,0.234375,25.91603,15.160305,7.458015400000001,17
0.10974121,0.276062,0.21563720000000003,111.69466000000001,3.5572519999999996,9.442748,17
0.12261963,0.23565674,0.18408203,38.755726,-3.8396947,-11.442748,17
0.07910156,0.24530029999999997,0.1828003,32.496179999999995,-12.793892999999999,15.748092000000002,17
0.06097412,0.24487305,0.16522217,1.091603,29.839695000000003,26.557251,17
0.04925537,0.22302246,0.12054443,16.717558,49.564884,36.969467,17
0.044189453,0.18041992,0.09020996,31.137404999999998,81.496185,45.839695,17
0.03729248,0.15112305,0.095581055,33.82443,99.00764000000001,49.709922999999996,17
0.038513184,0.122924805,0.07470703,38.618320000000004,107.62595,52.137405,17
0.03491211,0.09509277,0.08563232400000001,34.25954,105.862595,49.625954,17
0.021972656,0.09057617,0.08758545,31.389313,92.64121999999999,48.969467,17
0.022705077999999997,0.11096191400000001,0.06616211,27.152671999999995,90.72519,47.870228000000004,17
0.03186035,0.13201904,0.06707764,30.145039,79.48092,41.374046,17
0.042663574,0.17437744,0.08178711,13.030535,71.33588,36.862595,17
0.04547119,0.24768066,0.09832764,11.274809,65.58015400000001,31.664121999999995,17
0.084106445,0.2753296,0.11053467,17.549618,52.78626,22.900763,17
0.09234619,0.29785156,0.16979979999999997,16.343512,17.854961,1.0534351,17
0.11267089999999998,0.32824707,0.14294434,-11.458015,1.1679389999999998,-25.297710000000002,17
0.11413574,0.32843018,0.15130615,-2.206107,-33.587788,-47.687022999999996,17
0.15136719,0.34454346,0.24212646,-40.648853,-28.412214000000002,-55.320609999999995,17
0.13970947,0.38604736,0.26623535,-56.0229,-56.62595400000001,-59.46565,17
0.12390137,0.2798462,0.1899414,-14.847328,-48.335876,-43.725190000000005,17
0.14965820000000002,0.18487549,0.11029053,-5.5419846,17.534351,-46.0,17
0.21166992,0.12640381,0.12298584,-29.854961,14.610686999999999,-46.007633,17
0.18579102,0.1762085,0.09185791,-13.770992000000001,2.091603,-48.549618,17
0.13977051,0.16937256,0.06280517599999999,42.007633,-44.25954,-13.366412,17
0.11431885,0.1281128,0.08721924,29.328245000000003,-34.15267,19.832062,17
0.08233642599999999,0.08972168,0.07434082,-3.465649,-87.31298000000001,-7.099236500000001,17
0.019958496000000003,0.12463379,0.00201416,-60.50382,-97.34351,-33.320609999999995,17
0.035705566,0.20697021,-0.010559082,-30.900763,-104.938934,-38.12214,17
0.001037598,0.09289551,0.11468506,1.221374,-44.78626,2.4122138,17
-0.014709473,0.14245605,0.09790039,-62.52672,-44.076336,-34.44275,17
-0.004150391,0.18762207,0.10015869,-44.702290000000005,-55.64122,-41.335876,17
-0.012390136999999999,0.24761963,0.060302734000000004,-46.160305,-26.32061,-27.961832,17
0.034118652,0.3067627,0.061523438,-1.1603054,-5.2748094000000005,-7.5725193,17
0.03186035,0.31628418,0.09594726599999999,31.664121999999995,34.0,16.534351,17
0.059631348,0.348938,0.12322998,63.099236,33.633587,31.465649,17
0.11804199,0.25909424,0.1538086,40.015266,35.297709999999995,37.9771,17
0.11657715,0.35162354,0.051879882999999995,25.633587,38.290077000000004,1.0458015,17
0.14886475,0.40740967,0.018493652,59.961833999999996,20.862595000000002,11.770992,17
0.057250977,0.27142334,0.19537354,-57.14504,-64.48855,-64.0,17
0.08935547,0.24188232,0.13043213,5.3053436,12.496183,-32.160305,17
0.13226318,0.20806885,0.18719482,-21.015266,13.2213745,-42.755726,17
0.059692382999999995,0.18884277,0.32391357,-29.465649,71.16794,0.43511450000000007,17
0.08251953,0.26873779999999997,0.23779297,55.862595,63.71755600000001,34.244274,17
0.09991455,0.26446533,0.16186523,40.458015,75.10687,53.702290000000005,17
0.12347412,0.23059082,0.15081787,43.053436,101.900764,39.480915,17
0.11389160000000002,0.24194336,0.06280517599999999,31.557251,33.954197,29.274809,17
0.07122803,0.19781494,0.07092285,59.038166000000004,17.984734,40.74046,17
0.050354004,0.12475586,0.07336426,68.72519,38.267174,51.190838,17
0.053588867000000005,0.07196045,0.113098145,33.053436,60.71755600000001,25.282442,17
0.05670166,0.07592773400000001,0.12072754,-2.389313,14.160305,0.08396947,17
0.054992676,0.13476562,0.10980224599999999,-25.862595000000002,26.625953999999997,4.0992365,17
0.07385254,0.14581299,0.15875244,2.7709923,15.931297,18.702289999999998,17
0.06280517599999999,0.1942749,0.08905029,8.984733,20.091601999999998,9.175572,17
0.07244873,0.20782470000000003,0.099121094,17.335878,2.2595419999999997,8.954199000000001,17
0.07000732400000001,0.21508789,0.066589355,1.7709924,-14.068703,8.343511999999999,17
0.08172607400000001,0.25286865,0.05114746,-44.541985,-57.22900799999999,-16.297710000000002,17
0.07080078,0.31854248,0.0881958,-89.0229,-143.31297,7.10687,17
0.10699463,0.39257812,0.06988525400000001,-38.885498,-64.83206,-53.412212,17
0.10125732400000001,0.3538208,0.11303711,-35.709922999999996,-64.778625,-29.396946000000003,17
0.13421631,0.36041259999999997,0.16503906,-17.320610000000002,-55.50382,-37.06107,17
0.10534668,0.33746338,0.17285156,-21.656488,-84.39695,-39.328243,17
0.122558594,0.28894043,0.12451172,-21.580153,-34.671757,-32.709922999999996,17
0.20617676,0.21820068,0.10046387,-0.519084,-16.534351,-24.053434,17
0.23663330000000002,0.19067383,0.12963867,-4.763358599999999,-35.984734,-24.412214000000002,17
0.2052002,0.15484619,0.16864014,-6.5419846,-68.25954399999999,-16.931297,17
0.1609497,0.13146973,0.07019043,-19.801527,-16.351145000000002,-21.236639999999998,17
0.10583496,0.11047363,0.051452637,-3.9389312000000007,-36.969467,-31.022902000000002,17
0.08215332,0.09527588,0.05694580000000001,-9.343511999999999,-35.435116,-32.244274,17
0.06500244,0.07916260000000001,0.07318115,-26.25191,-49.74046,-22.297710000000002,17
0.046142578,0.087890625,0.04833984400000001,-46.770992,-60.320609999999995,-24.664122,17
0.031433105,0.11553955,0.053527832000000004,-46.114502,-69.76335999999999,-25.755726,17
0.013000488000000001,0.16290283,0.07983398400000001,-52.274809999999995,-75.84733,-37.129771999999996,17
0.009887695,0.19549560000000002,0.10095215,-66.145035,-62.045803,-44.244274,17
0.008239746,0.2689209,0.093933105,-68.19084000000001,-52.47328,-46.671757,17
0.018493652,0.33026123,0.095581055,-7.8778625,-28.183207,-20.038168,17
0.036621094,0.36938477,0.04296875,31.19084,-8.183207000000001,6.183206,17
0.07122803,0.31158447,0.06549072,40.648853,40.419846,34.969467,17
0.14227295,0.27435303,0.14086914,11.824428,38.076336,23.603054,17
0.13470459,0.35406494,0.06317139,-14.923664000000002,-2.389313,-10.122137,17
0.13690186,0.44055176,0.10119629,-24.587785999999998,8.503817,-13.274809,17
0.14880371,0.354187,0.1161499,-6.1755724,9.793892999999999,5.4656487,17
0.1605835,0.1663208,0.1885376,7.3816795,-45.908398,-6.664122,17
0.105407715,0.21746826,0.13977051,51.366413,-55.290077000000004,-1.2442749,17
0.124816895,0.19091797,0.15216064,50.564884,2.1908397999999996,11.274809,17
0.11743164,0.1395874,0.16455078,37.992367,-16.610687,13.083969,17
0.07824707,0.17297363,0.13580322,15.045801,8.557252,2.6259542000000002,17
0.064941406,0.21417236,0.09112549,35.007633,34.618320000000004,8.068703,17
0.06085205,0.20935059,0.07366943,46.679390000000005,73.39695,27.419846999999997,17
0.046447754,0.17877197,0.10632324,45.610687,88.35114,33.87786,17
0.054016113,0.1538086,0.053100586,45.12214,104.099236,35.007633,17
0.041870117000000005,0.15319824,0.05224609400000001,46.549618,95.72519,35.099236,17
0.038757323999999996,0.15740967,0.034301757999999995,46.351147,93.908394,32.16794,17
0.041259766,0.16455078,0.05255127,45.961834,86.229004,30.442749,17
0.05999756,0.17205810000000002,0.044799805,37.641220000000004,77.74045600000001,26.099237,17
0.07104492,0.21337889999999998,0.06213379,33.282444,60.480915,15.335876999999998,17
0.07055664,0.2644043,0.06439209,37.725190000000005,44.908398,14.045801,17
0.08142089999999999,0.29125977,0.06903076,41.305344,31.57252,12.007633,17
0.09100342,0.29284668,0.091796875,30.885496000000003,21.122137,4.2671757,17
0.10247803,0.29888916,0.10809326,16.709923,4.778626,-2.4351146,17
0.1293335,0.27947998,0.11206055,16.641222,-11.954199000000001,-3.8854961,17
0.13488770000000003,0.28192140000000004,0.12854004,-0.022900764,-29.267176,-15.664123000000002,17
0.14526367,0.31036377,0.1531372,-21.366413,-43.923664,-30.480916999999998,17
0.14196777,0.29583740000000003,0.13696289,-26.664121999999995,-56.55725,-34.519085,17
0.14190674,0.21887207,0.11419678,-33.0229,-40.15267,-30.564885999999998,17
0.19335938,0.16125488,0.09594726599999999,-56.55725,-15.122137,-35.343509999999995,17
0.23010254,0.18859863,0.11541748,-78.83206,-5.152672,-45.74046,17
0.20056152,0.23010254,0.11785889,-41.85496,-12.916031,-11.2595415,17
0.11828613,0.23126220000000003,0.11364746,3.7862597,73.908394,1.3740458,17
0.15594482,0.17541504,0.10626221,28.122137,132.78625,6.190840000000001,17
0.14923096,0.10327148400000001,0.059753417999999996,51.114502,39.656490000000005,-11.007633,17
0.058654785,0.15539551,-0.005432129,-44.885498,-27.954199,-32.198475,17
0.014709473,0.15197754,0.032958984,-26.89313,-67.96947,-48.198475,17
-0.022705077999999997,0.07556152,0.034729004,-43.671757,-34.969467,-53.52672,17
-0.04034424,0.1531372,0.06317139,-8.961832000000001,-44.198475,-45.51145,17
-0.03363037,0.1508789,0.026855469,-24.51145,-34.549618,-26.770992,17
0.012084961000000002,0.19268799,0.04119873,-0.091603056,-27.519083000000002,-15.526717000000001,17
0.05407715,0.23620605,0.026306152000000003,12.580152499999999,-9.977099,5.6412214999999994,17
0.09716797,0.28656006,0.013000488000000001,-9.152672,-23.045801,4.4351144,17
0.11273193,0.28271484,0.08630371,-9.9007635,-73.137405,-11.21374,17
0.08422851599999999,0.28704834,0.080566406,20.61832,-68.01527,15.465648999999999,17
0.11242676,0.28009033,0.074279785,11.343511999999999,-28.564885999999998,21.549618,17
0.13098145,0.37176514,0.06616211,-33.160305,3.3587787000000002,9.007633,17
0.07727051,0.45001220000000003,0.09918213,6.2977099999999995,-53.0229,-20.167938,17
0.10681152,0.31011963,0.11975098,50.748093,-2.0152671000000004,17.709923,17
0.10345459,0.1928711,0.11407471,69.26717,-13.862596,26.435114000000002,17
0.12652588,0.16497803,0.12915039,56.908398,11.114504,23.778625,17
0.13763428,0.16119385,0.16198729999999997,13.984732999999999,23.862595000000002,0.9236641,17
0.12738037,0.24139404,0.17773438,-31.366413,49.954197,-24.335878,17
0.0871582,0.25268555,0.11480713,-17.93893,42.961834,-21.610687,17
0.06573486,0.26776123,0.048950195,2.465649,49.076336,2.4351146,17
0.045776367000000005,0.21569824,0.020446777,37.717556,60.053436,24.229008,17
0.03643799,0.16522217,0.033691406,40.480915,69.9542,30.045801,17
0.038269042999999996,0.12927246,0.03265381,36.190838,64.27481,29.038168,17
0.025939941,0.12451172,0.037475586,23.946566,57.396946,19.770992,17
0.032836914,0.13830566,0.04724121,23.580153,50.961834,14.198473000000002,17
0.04626465,0.14959717,0.07000732400000001,8.687023,59.709922999999996,16.160304999999997,17
0.046569824,0.20141602,0.07891846,-11.503817,45.14504,11.679389,17
0.057983400000000004,0.26037598,0.09625244,-3.70229,37.748093,13.427481,17
0.06390381,0.29699707,0.15264893,19.145039,36.610687,19.229008,17
0.086120605,0.28045654,0.08044433599999999,26.526718,16.793894,22.740458,17
0.11791992,0.26568604,0.08898926,20.06107,4.053435299999999,10.519084,17
0.10333252,0.28894043,0.07135010000000001,8.687023,4.6183205,9.114504,17
0.12426758,0.27331543,0.08538818,13.335876999999998,-20.114504,8.290076,17
0.1282959,0.29589844,0.06304932,-9.732824,-34.44275,-1.0305344,17
0.15563965,0.29681396,0.109313965,-10.938931,-22.213741,-13.160305,17
0.16015625,0.28222656,0.12646484,-4.335878,-15.458015,-28.282442,17
0.18023682,0.22540283,0.11138916,10.412213000000001,-16.12977,-39.076336,17
0.20257568,0.18151855,0.12738037,11.458015,-10.198473,-51.419846,17
0.18963623,0.16992188,0.12738037,-31.259542,-26.862595000000002,-54.778625,17
0.14361572,0.20379639,0.057800292999999996,-46.007633,-72.41221999999999,-53.81679499999999,17
0.11816406,0.1552124,0.058044434000000006,2.167939,-36.412212,-21.564885999999998,17
0.10040283,0.13250732,0.014160156,-16.351145000000002,-38.08397,-16.519083,17
0.07086182,0.10888672,0.034423828,-6.89313,-68.12214,-9.961832000000001,17
0.056884765999999996,0.10644531,0.04486084,-45.44275,-53.69465600000001,-16.022902,17
0.0423584,0.10974121,0.04107666,-41.183205,-55.923664,-14.389313000000001,17
0.03326416,0.12408447,0.05255127,-50.480915,-58.129771999999996,-22.51145,17
0.03149414,0.15124512,0.06921387,-49.221375,-60.343509999999995,-26.496183000000002,17
0.035095215,0.20330810000000002,0.051696777,-53.47328,-53.793890000000005,-25.824427,17
0.03137207,0.2753296,0.036621094,-53.396946,-52.21374,-29.38168,17
0.018005371000000003,0.33087158,0.000305,-39.007633,-25.526718,-15.580152499999999,17
0.032165527,0.34783936,0.018432617,-23.48855,10.175572,-9.931297,17
0.061828613,0.28814697,0.12841797,-16.213741,20.610687,-6.709923700000001,17
0.06768799,0.34161377,0.04058838,-25.603054,-0.5648854999999999,-38.10687,17
0.06866455,0.43560790000000005,0.06085205,-15.19084,10.427481,-27.687022999999996,17
0.09375,0.30230713,0.18249512,21.648854999999998,7.183206,-21.664122,17
0.10821533,0.18157959,0.1618042,26.160304999999997,-41.282444,-28.93893,17
0.15814209,0.21466064,0.12774658,0.7480916,-2.0992367,-25.755726,17
0.13348389,0.23071289,0.22546387,4.8778625,-19.030535,-16.687023,17
0.11553955,0.27789307,0.24499512,-24.61832,0.77862597,-21.793894,17
0.08642578,0.3262329,0.20568848,-12.496183,1.4351145,-6.4351144,17
0.05621338,0.31103516,0.15722656,24.038168,42.755726,28.312977000000004,17
0.028930664,0.25482178,0.09283447,49.358779999999996,95.75572,56.366413,17
0.023986816,0.18792725,0.07482910000000001,48.282444,132.87022,61.366413,17
0.026123047000000003,0.14294434,0.07165527,57.984733999999996,140.31297,62.12214,17
0.03894043,0.10388183599999999,0.07519531,55.37404599999999,136.45038,55.809162,17
0.056884765999999996,0.081970215,0.14855957,46.816795,114.52672,56.137405,17
0.06579589999999999,0.06518555,0.09692383,24.007633,91.541985,45.793890000000005,17
0.06817627,0.14941406,0.091796875,-21.946566,66.61069,12.129771,17
0.064575195,0.21893310000000002,0.08709717,11.557252,56.9771,24.122137,17
0.06774902,0.26226807,0.080566406,16.969465,35.580154,26.053434,17
0.058532715,0.27734375,0.09606933599999999,21.38168,18.694656,22.549618,17
0.07781982400000001,0.27679443,0.1104126,2.793893,-3.8473281999999998,2.5496182000000003,17
0.07727051,0.29962158,0.12066650400000001,-11.129771,-14.427481,-11.274809,17
0.08569336,0.2720337,0.13183594,5.9770994,-32.549618,-4.3206105,17
0.09075928,0.25738525,0.10394287,0.053435113,-43.55725,-15.114504,17
0.12109375,0.26263428,0.14074707,-28.839695000000003,-54.961833999999996,-38.290077000000004,17
0.104003906,0.2642212,0.14129639,-24.557251,-62.190838,-41.671757,17
0.11920166,0.23651123,0.14318848,-17.099237,-53.274809999999995,-45.312977000000004,17
0.15100098,0.22497559,0.16204834,-18.755726,-36.396946,-55.007633,17
0.21905518,0.2555542,0.15502929999999998,-26.351145000000002,-40.007633,-57.37404599999999,17
0.20495605,0.25811768,0.17980957,-9.076336,-71.29771,-51.114502,17
0.16015625,0.21630860000000002,0.11791992,-7.862595599999999,-75.68701999999999,-36.114502,17
0.11993408,0.17120361,0.08093262,-8.503817,-87.0229,-27.167938,17
0.0847168,0.13470459,0.07525635,-27.152671999999995,-91.12977,-25.206106,17
0.05316162,0.12231445,0.056884765999999996,-42.16794,-96.36641,-20.045801,17
0.024841309,0.10461426,0.031311035,-43.503820000000005,-105.94656,-16.862595000000002,17
-0.002441406,0.12628174,0.037719727,-66.48092,-90.15267,-33.21374,17
-0.003601074,0.11444092,0.078125,-47.404579999999996,-91.46565,-30.42748,17
-0.021484375,0.13055419999999998,0.07086182,-82.73283,-85.229004,-49.045803,17
-0.009277344,0.22131348,0.08959961,-86.65649,-89.68701999999999,-59.18320500000001,17
0.002136231,0.28149414,0.09875488,-43.778625,-74.30534,-47.312977000000004,17
-0.0029296879999999997,0.34655762,0.09045410000000001,4.2748094000000005,-60.656490000000005,-15.641221,17
0.026916503999999997,0.3324585,0.10626221,25.725191,-14.511451000000001,13.557251999999998,17
0.06024169999999999,0.28674316,0.14660645,4.8320612999999994,32.89313,14.625955,17
0.050476074,0.35864258,0.09472656,-10.274809,11.496183,-6.793893300000001,17
0.007263184000000001,0.37695312,0.07751465,8.648855000000001,21.358778,-13.320610999999998,17
0.002075195,0.34802246,0.11114502,-26.23664,13.511451000000001,-50.137405,17
0.07501221,0.26263428,0.10235596,5.6488547,2.7862597,-16.251910000000002,17
0.053710938,0.15350342,0.13934326,43.396946,-11.335877,3.091603,17
0.11035156,0.23352051,0.16204834,38.366413,18.473282,0.053435113,17
0.08239746,0.32666016,0.17767334,50.190838,86.66412,43.969467,17
0.07513428,0.26446533,0.14489746,62.47328,154.49618999999998,72.78626,17
0.057250977,0.21447754,0.14141846,60.87786,166.37403999999998,77.0,17
0.041992188,0.16363525,0.07409668,69.75572,172.47328000000002,79.24428,17
0.03753662,0.119018555,0.060180664,71.07633,170.51144,78.23664000000001,17
0.04901123,0.08557129,0.04437256,78.0687,154.22137,68.07633,17
0.042785645,0.033203125,0.05078125,68.854965,126.70992,56.885498,17
0.06188965,0.29779053,0.12371826,38.297709999999995,14.732823999999999,21.480917,17
0.06903076,0.30102540000000005,0.13531494,19.404581,8.816792999999999,1.9694656000000004,17
0.093933105,0.32635498,0.21020508,15.366412,3.8549618999999997,-7.4351144,17
0.13024902,0.27838135,0.09057617,29.030534999999997,-11.541985,-8.351144999999999,17
0.15014648,0.27227783,0.19067383,10.076336,-53.755726,-25.709923,17
0.13079834,0.32177734,0.18121338,-51.206109999999995,-56.297709999999995,-55.78626,17
0.12536621,0.28961182,0.21240234,-23.190839999999998,-66.25954399999999,-41.21374,17
0.16314697,0.25427246,0.14874268,-32.809162,-67.381676,-54.450382,17
0.21972656,0.24951172,0.14544678,-37.496179999999995,-58.84733000000001,-53.801525,17
0.18627929999999998,0.24353027,0.12139892599999999,-27.770992,-65.87786,-42.923664,17
0.1616211,0.21295166,0.10723877,-9.503817,-50.885498,-27.580153000000003,17
0.11785889,0.12615967,0.09008789,23.610687,-65.34351,1.1526718,17
0.08074951,0.07623291,0.09143066400000001,-1.8778626,-63.748093000000004,0.53435117,17
0.05432129,0.056518555,0.07519531,-39.038166,-72.39695,-4.145038,17
0.00061,0.07397461,0.062194824,-83.221375,-98.76335999999999,-26.38168,17
-0.00769043,0.12414551,0.07165527,-85.64886,-95.137405,-40.954197,17
-0.036376953,0.16986084,0.06280517599999999,-98.31298000000001,-92.42748,-54.587788,17
-0.03326416,0.21569824,0.11993408,-100.79389,-67.8855,-54.458015,17
-0.010559082,0.25732422,0.09155273400000001,-61.992367,-52.229008,-42.358779999999996,17
0.03100586,0.26727295,0.09057617,10.80916,-20.946566,-4.7938933,17
0.051574707000000004,0.3095703,0.093933105,46.541985,-0.67175573,11.496183,17
0.07452392599999999,0.37487793,0.056518555,57.076336,34.53435,38.9771,17
0.09210205,0.3098755,0.13085938,37.74046,70.9313,43.679390000000005,17
0.09655762,0.30224609999999996,0.1765747,-12.946565,7.3129773,-5.9160304,17
0.024475097999999997,0.41461182,0.011291503999999999,-1.4122137,-22.725191,-51.679390000000005,17
0.034240723,0.29467773,0.15124512,-54.46565,-8.641221,-56.007633,17
0.07788086,0.25512695,0.10980224599999999,-36.076336,-14.496182999999998,-38.038166,17
0.040161132999999995,0.17266846,0.12908936,26.755726,-24.175573,-10.557252,17
0.12536621,0.23754883,0.1451416,49.992367,11.450381,-0.8854962,17
0.14276123,0.2677002,0.21008301,52.305344,56.28244399999999,27.015265999999997,17
0.15502929999999998,0.29449463,0.24951172,48.114502,83.618324,41.374046,17
0.1161499,0.28466797,0.20690918,62.12214,91.46565,41.160305,17
0.09429932,0.21405029999999997,0.13970947,47.809162,122.75572,53.732826,17
0.08129883,0.17846679999999998,0.11047363,43.480915,127.27481,57.648853,17
0.06384277,0.14056396,0.06512451,57.091602,125.32061000000002,63.572517000000005,17
0.051818848,0.09967041,0.04626465,52.480915,120.48855,62.83969499999999,17
0.06585693,0.08630371,0.059814453,42.870228000000004,110.03053,60.53435,17
0.060180664,0.064331055,0.05908203,34.984734,73.8855,45.839695,17
0.06866455,0.08660889,0.028625487999999998,-5.015267400000001,35.526720000000005,14.40458,17
0.057678223,0.18963623,0.028686523,-32.160305,21.694656,-4.183206,17
0.0703125,0.2675171,0.057617188,-2.2290077,24.725191,5.7480917,17
0.07385254,0.30773926,0.07659912,33.755726,17.419847,23.175573,17
0.07525635,0.27160645,0.11224365,46.14504,10.80916,27.473282,17
0.08660889,0.28869629999999996,0.14581299,14.183207000000001,-11.251908,0.6335878,17
0.08892822,0.30944824,0.12225342,-1.8015267,-21.656488,-11.091603,17
0.09124756,0.27593994,0.10235596,10.2213745,-49.885498,-14.526717000000001,17
0.12237549,0.27288818,0.10626221,-8.770992,-48.53435,-31.625953999999997,17
0.15917969,0.26708984,0.13574219,-20.603054,-56.9771,-55.030533,17
0.19226074,0.22875977,0.12084961,-30.549618,-73.98473,-55.435116,17
0.22839355,0.20050049,0.13702393,-37.08397,-73.900764,-53.885498,17
0.20275879,0.21887207,0.11578369,-51.954197,-96.44275,-54.862595,17
0.17840576,0.20544434,0.10992432,-36.114502,-96.58015400000001,-47.473279999999995,17
0.14404297,0.16143799,0.06414795,-17.824427,-102.41984599999999,-22.580153,17
0.08782959,0.11706543,0.07342529,-14.885496,-93.9313,-1.1603054,17
0.06335449,0.09838867,0.041625977,-31.206106,-89.98473,-1.8473282,17
0.038085938,0.09271239999999999,0.06726074,-46.9771,-84.8855,2.0,17
0.017333984,0.09753418,0.06549072,-43.87786,-73.96183,2.7557251,17
0.0013427729999999998,0.10662842,0.08959961,-69.87786,-80.36641,-13.648855,17
-0.005737305,0.17327881,0.09020996,-88.05344000000001,-71.83206,-41.755726,17
0.00793457,0.21148682,0.09466553,-57.335876,-63.82443000000001,-30.778625,17
0.020874023000000002,0.24609375,0.13024902,-15.183207000000001,-52.46565,-14.961832000000001,17
0.036865234,0.3139038,0.15161133,-1.8320610000000002,-55.061069999999994,-18.10687,17
0.04119873,0.34466553,0.13659668,2.2137403,-39.44275,-14.167939000000002,17
0.053588867000000005,0.44262695,0.033325195,-53.366413,-38.14504,-24.961832,17
0.054626465,0.43261720000000004,0.12432861,-73.96183,-30.022902000000002,-55.412212,17
0.044555664,0.36260986,0.19403076,-101.0458,-28.564885999999998,-69.92367,17
0.08795166,0.37005615,0.08880615,-48.709922999999996,-51.709922999999996,-52.0229,17
0.08709717,0.1920166,0.13043213,48.717556,-24.969465,-0.6488550000000001,17
0.09020996,0.21563720000000003,0.15588379,74.35114,25.770992,24.465649,17
0.13885498,0.26037598,0.19604492,41.595420000000004,79.33588,18.847328,17
0.16485596,0.28704834,0.24450684,51.366413,109.62595,34.564884,17
0.13812256,0.26794434,0.23193360000000002,62.85496,101.503815,37.404579999999996,17
0.10888672,0.21661377,0.17236328,74.92367,102.27481,39.595420000000004,17
0.088012695,0.1918335,0.089660645,50.244274,131.85497,50.694656,17
0.07305908,0.15112305,0.07519531,68.618324,135.0,59.55725,17
0.061340332000000004,0.10357666,0.09082031,63.84733000000001,142.22899999999998,66.099236,17
0.046142578,0.07324219,0.05596924,50.358779999999996,132.1145,67.23664000000001,17
0.04058838,0.07165527,0.026794434,30.366413,122.25191000000001,51.732826,17
0.05322265599999999,0.08923339999999999,0.07385254,40.793890000000005,104.05344000000001,49.992367,17
0.057556152,0.14666748,0.061828613,32.923664,97.70229,48.732826,17
0.06707764,0.21240234,0.08605957,39.16794,81.45038000000001,45.694656,17
0.07006836,0.29010009999999997,0.10870361,39.885498,77.381676,40.961834,17
0.06597900400000001,0.36541748,0.11981201,30.656488,54.47328,26.183207,17
0.083984375,0.383667,0.15014648,48.450382,55.702290000000005,19.396946,17
0.1104126,0.3446045,0.14910889,32.656490000000005,34.664124,14.267176000000001,17
0.1262207,0.2814331,0.14575195,13.122137,-2.5801528,-0.3740458,17
0.14453125,0.27319336,0.12915039,-7.80916,-21.0,-27.923664000000002,17
0.14440918,0.26904297,0.15142822,-17.282442,-53.450382,-37.870228000000004,17
0.14862060000000002,0.22857666,0.16827393,-35.755726,-65.79389,-54.412212,17
0.1651001,0.19256592,0.12725830000000002,-33.862595,-75.58778000000001,-55.648853,17
0.20367432,0.19421387,0.12689209,-49.190838,-59.30534399999999,-72.24428,17
0.24993896,0.19653320000000002,0.1416626,-51.21374,-51.664124,-53.84733000000001,17
0.21014404,0.16796875,0.14868164,-41.931297,-79.48092,-38.648853,17
0.16625977,0.14215088,0.07366943,-38.82443,-59.045803,-36.099236,17
0.11987305,0.12463379,0.031555176000000004,-17.206106,-70.091606,-34.045803,17
0.08245849599999999,0.10412598,0.04638672,-6.343511599999999,-48.969467,-8.78626,17
0.06597900400000001,0.09295654,0.039978027,-1.5572518999999998,-50.23664,-0.061068702,17
0.04638672,0.07910156,0.067871094,-30.694656,-53.435116,-6.40458,17
0.011413574,0.13250732,0.08282471,-56.603054,-64.67939,-22.480917,17
-0.01550293,0.16766357,0.10717773400000001,-84.58778000000001,-60.9771,-42.21374,17
-0.002075195,0.25006104,0.10308838,-98.71755999999999,-55.21374,-54.969467,17
0.030761719,0.28411865,0.11566162,-40.53435,-42.725190000000005,-40.229008,17
0.061828613,0.27398682,0.09899902,35.564884,-29.29771,-10.167939,17
0.06024169999999999,0.28894043,0.06542969,54.106869999999994,-24.412214000000002,-3.2900763,17
0.06750488,0.28137207,0.06109619,30.19084,16.961832,13.534351000000001,17
0.09564209,0.26123047,0.12310791,-25.946566,49.55725,7.885496000000001,17
0.082214355,0.33355713,0.10198974599999999,-43.045803,-23.0,-26.664121999999995,17
0.013427733999999998,0.40142822,0.020080566,-10.702291,-5.6106873,-34.44275,17
0.051635742000000005,0.28619385,0.17797852,-78.83206,-5.5038165999999995,-54.0,17
0.08374023400000001,0.2677002,0.10180664,-4.236641400000001,7.160305499999999,-12.152672,17
0.109191895,0.1843872,0.1453247,61.69465600000001,-1.519084,-7.137404400000001,17
0.13134766,0.25665283,0.16070557,49.702290000000005,34.885498,10.877863,17
0.15838623,0.26330566,0.22808838,42.641220000000004,51.290077000000004,25.007633,17
0.13769531,0.28167725,0.19018555,59.76336,78.9313,26.786259,17
0.11285400400000001,0.222229,0.15966797,68.19847,80.79389,26.603053999999997,17
0.09283447,0.19610596,0.13409424,49.038166,111.83968999999999,32.12214,17
0.06799316400000001,0.17803955,0.08850098,49.984734,112.770996,42.351147,17
0.05621338,0.1515503,0.052978515999999996,64.94655999999999,114.80916,51.160305,17
0.04547119,0.11090088,0.046569824,55.938930000000006,113.72519,52.08397,17
0.05480957,0.10589599599999999,0.050231934000000006,40.221375,107.80916,45.419846,17
0.047851562,0.117370605,0.054382324,26.946565999999997,88.72519,37.503820000000005,17
0.048217773,0.13305664,0.05291748,21.022902,80.618324,27.67939,17
0.05218506,0.18017578,0.082214355,13.832060999999998,69.70229,15.015267000000001,17
0.06756592,0.23016357,0.06604004,22.656488,59.458015,10.832061,17
0.08618164,0.26342773,0.06915283,33.702290000000005,47.068703,17.442749,17
0.08697510000000001,0.26898193,0.10253906,25.702289999999998,26.25191,16.755726,17
0.09814453,0.28851318,0.12506104,6.5496182,0.49618322,2.7862597,17
0.10052489999999999,0.32800293,0.14154053,6.190840000000001,-18.442749,-4.259542,17
0.10681152,0.28497314,0.14776611,-2.9312978,-27.25191,-6.2671757,17
0.12432861,0.284729,0.13970947,-5.664122,-53.954197,-25.809160000000002,17
0.12994385,0.28704834,0.14965820000000002,-17.374046,-67.83206,-36.25954,17
0.1338501,0.24542236,0.14331055,-27.557251,-70.91603,-39.412212,17
0.14959717,0.20526123,0.10858154,-39.992367,-74.78626,-55.549618,17
0.18579102,0.18884277,0.10797119,-47.816795,-62.47328,-54.664124,17
0.22113037,0.21252441,0.12738037,-60.335876,-66.541985,-50.778625,17
0.18359375,0.21325684,0.10913086,-41.458015,-76.618324,-35.748093,17
0.15032959,0.18566895,0.07989502,-19.48855,-69.58778000000001,-27.351145000000002,17
0.113342285,0.14965820000000002,0.086120605,-11.076336,-67.59541999999999,-13.954199,17
0.07745361,0.13122559,0.06500244,-22.290077,-64.07633,-6.923664,17
0.053588867000000005,0.11749267599999999,0.05316162,-34.15267,-63.007633,-5.5725193,17
0.015197753999999999,0.14794922,0.08941650400000001,-54.679390000000005,-71.47328,-17.793894,17
0.000549,0.17626953,0.072753906,-51.900764,-64.62595,-24.404581,17
-0.001525879,0.16033936,0.12017822,-54.0229,-76.9313,-37.984734,17
-0.006958008000000001,0.20996094,0.08172607400000001,-58.312977000000004,-68.33588,-47.366413,17
0.012329102,0.24847412,0.047729492000000005,-14.603053,-49.526720000000005,-33.870228000000004,17
0.03161621,0.25732422,0.05493164,7.59542,-25.0,-17.167938,17
0.055358887,0.28802490000000003,0.07843017599999999,7.541984599999999,6.038168,-1.0839695,17
0.08374023400000001,0.32977295,0.12268066400000001,-6.59542,28.419846999999997,-6.900763499999999,17
0.09710693,0.31652832,0.16534424,-14.832060999999998,1.5954198999999998,-10.938931,17
0.051513672,0.39074707,0.04486084,14.122137,-3.793893,-25.503817,17
0.0423584,0.3190918,0.16870117,-48.412212,-1.519084,-39.84733,17
0.09082031,0.27783203,0.19085693,-17.320610000000002,-3.7099237,-13.587786999999999,17
0.09686279,0.16809082,0.14160156,19.824427,-9.824428,1.2977100000000001,17
0.13122559,0.21350098,0.110839844,7.847328,-19.068703,-7.5801525,17
0.15881348,0.24676514,0.1765747,19.557251,16.312977,2.0992367,17
0.15014648,0.27575684,0.22479248,35.251907,30.229008,11.931297,17
0.113220215,0.31225586,0.15252686,50.190838,39.717556,16.167938,17
0.08630371,0.25878906,0.119140625,67.83206,103.12977,46.473279999999995,17
0.07061767599999999,0.21282959,0.068237305,65.381676,119.46565,53.267174,17
0.06097412,0.1673584,0.040893555,72.84733,127.1145,52.23664,17
0.057617188,0.13446045,0.04833984400000001,75.54961999999999,131.56488000000002,53.53435,17
0.059692382999999995,0.09143066400000001,0.047729492000000005,60.862595,107.47328,50.648853,17
0.05316162,0.072143555,0.058410645,36.038166,82.36641,35.328243,17
0.053344727,0.082092285,0.049560547,10.328244,46.427483,19.152672,17
0.060913086,0.1375122,0.049682617000000005,-13.312976999999998,29.229008,9.816792999999999,17
0.06201172,0.20349121,0.051513672,-0.9465648999999999,18.221375,9.877863,17
0.05999756,0.28491209999999995,0.093933105,11.648855000000001,16.458015,17.679389999999998,17
0.064331055,0.32635498,0.12670898,25.221375,7.3587785000000006,22.099237,17
0.06201172,0.32458496,0.16394043,15.114504,-1.0534351,7.5114503,17
0.06732178,0.32611084,0.12548828,-1.1603054,-5.076336,-2.312977,17
0.078186035,0.2902832,0.11016846,-4.343511599999999,-6.8702292,-4.5725193,17
0.09411621,0.29699707,0.09448242,-8.480916,-17.595419,-19.862595000000002,17
0.11828613,0.30999756,0.09338379,-1.7786259999999998,-11.748092,-24.404581,17
0.13824463,0.25915527,0.13977051,-0.77099234,-25.435114000000002,-32.946564,17
0.16430664,0.22698975,0.1303711,-33.282444,-33.14504,-43.137405,17
0.20336914,0.20336914,0.09625244,-23.480917,-38.21374,-50.396946,17
0.23419189999999998,0.18426514,0.11547851599999999,-38.709922999999996,-36.984734,-34.664124,17
0.19616699,0.18005371,0.06854248,-5.816794,-44.984734,-21.679389999999998,17
0.15637207,0.171875,0.045654297,-34.83206,-42.480915,-29.152671999999995,17
0.10064697,0.14971924,0.034729004,-27.76336,-56.12214,-16.404581,17
0.061767578,0.13800049,0.030273438,-27.755726,-54.419846,-7.908396700000001,17
0.05102539,0.14257812,0.03387451,-21.732824,-48.496179999999995,-5.9694657,17
0.029724121000000003,0.13940429999999998,0.037475586,-19.496183,-54.25954,-11.427481,17
0.04650879,0.111328125,0.06225586,-24.450382,-52.519085,-8.122137,17
0.020507812,0.13555908,0.08300781,-44.748093,-59.862595,-21.671754999999997,17
0.02557373,0.15478516,0.101745605,-81.60305,-62.38168,-41.923664,17
0.03289795,0.24444580000000002,0.08532715,-61.251906999999996,-37.473279999999995,-33.946564,17
0.051330565999999994,0.29937744,0.11663818,5.1679387000000006,-8.19084,-6.6793895,17
0.060180664,0.33538818,0.052978515999999996,39.503820000000005,11.106871,8.816792999999999,17
0.08087158,0.33630370000000004,0.041809082000000004,22.450382,47.045803,25.297710000000002,17
0.11950683599999999,0.29217529999999997,0.15527344,2.3206108,60.297709999999995,18.312977,17
0.10052489999999999,0.38757324,0.041809082000000004,8.648855000000001,-5.190840000000001,-28.160304999999997,17
0.08026123,0.3154297,0.15631104,-30.122137,-14.122137,-46.435116,17
0.109191895,0.27557373,0.13519287,-37.82443,-38.351147,-37.290077000000004,17
0.12408447,0.20129395,0.14727783,1.0992366000000002,-38.12214,-19.900763,17
0.1373291,0.24725342,0.13452148,19.633587,-3.0687022,-3.8091602,17
0.16949463,0.25469970000000003,0.22064209,23.08397,6.0610685,4.4351144,17
0.14691162,0.25195312,0.22412110000000002,20.969465,22.61832,9.022901,17
0.10906982400000001,0.26190186,0.16265869,37.770992,33.450382,22.274809,17
0.07971191400000001,0.22064209,0.1328125,38.48855,76.76335999999999,41.76336,17
0.07281494,0.17358398,0.07727051,50.503820000000005,86.43511,47.46565,17
0.06292724599999999,0.14489746,0.16088867,52.687022999999996,91.60305,47.679390000000005,17
0.05218506,0.11853027,0.08154297,46.908398,83.778625,47.183205,17
0.047546387,0.10888672,0.08532715,37.46565,76.503815,46.587788,17
0.046203613,0.1038208,0.051818848,26.167938,59.801525,38.503820000000005,17
0.052001953,0.13873291,0.09417724599999999,10.541985,49.923664,27.213741,17
0.053466797,0.19659424,0.07659912,11.648855000000001,41.053436,20.030535,17
0.06011963,0.25567627,0.09832764,17.526718,42.10687,20.198473,17
0.06225586,0.29345703,0.10845947,27.900763,38.160305,24.374046,17
0.06890869,0.28894043,0.1260376,25.51145,29.442749,13.839695,17
0.09033203,0.28796387,0.11578369,9.618319999999999,20.412214000000002,-5.366412,17
0.11248779,0.2987671,0.12896729,6.4580154,7.206106699999999,-9.580152499999999,17
0.12219238,0.25494385,0.09362793,6.114504,-14.702291,-4.091603299999999,17
0.14581299,0.24298096,0.103027344,-15.129771,-19.38168,-17.717558,17
0.16235352,0.2798462,0.15405273,-30.435114000000002,-40.87786,-32.587788,17
0.16577148,0.25335693,0.15570068,-23.045801,-51.595420000000004,-40.427483,17
0.17895508,0.22784424,0.15319824,-28.70229,-59.82443000000001,-46.603054,17
0.2000122,0.19110107,0.12487793,-34.526720000000005,-57.38168,-51.89313,17
0.22344970000000003,0.17791748,0.12475586,-37.0229,-56.396946,-45.78626,17
0.18878174,0.19000244,0.10424805,-39.183205,-73.71755999999999,-40.389313,17
0.16253662,0.18444824,0.078063965,-15.007632999999998,-66.44275,-26.206106,17
0.11694336,0.16235352,0.07397461,-7.8015265,-74.58015400000001,-10.389313000000001,17
0.09277344,0.13128662,0.08581543,-10.679389,-68.40458000000001,2.519084,17
0.055664062,0.14111328,0.06469726599999999,-51.045803,-83.00764000000001,-11.748092,17
0.005004883,0.16802979,0.07672119,-87.66412,-96.229004,-38.770992,17
0.001525879,0.17340088,0.09979248,-69.70992,-80.938934,-35.55725,17
-0.011474608999999998,0.15655518,0.08758545,-72.20611,-65.89313,-41.625954,17
-0.001525879,0.19403076,0.083862305,-67.24428,-40.129771999999996,-36.908398,17
0.016357422,0.22772217,0.055541992000000005,-23.450382,-12.755725,-14.541985,17
0.044799805,0.24963379,0.06958008,37.87786,8.755725,17.267176,17
0.05322265599999999,0.31640625,0.06060791,61.206109999999995,27.969465000000003,36.183205,17
0.089782715,0.3065796,0.08111572,56.82443000000001,47.007633,46.93893,17
0.14709473,0.27709959999999995,0.14202881,26.725191,79.73283,37.984734,17
0.059631348,0.30072020000000005,0.099487305,-16.786259,-27.587785999999998,-56.22900799999999,17
0.08013916,0.26251220000000003,0.13165283,-72.48092,-50.10687,-73.0229,17
0.107299805,0.21862793,0.046020507999999995,-2.442748,-0.18320611,-7.709923700000001,17
0.1171875,0.17675781,0.09375,11.931297,-6.259542,-1.8091604,17
0.13568115,0.24371338,0.15338135,22.221375,46.229008,8.282442999999999,17
0.16125488,0.29785156,0.19207764,48.068703,62.51145,27.038168,17
0.11877441400000001,0.29034424,0.17950439999999998,64.23664000000001,73.58778000000001,33.587788,17
0.11126709,0.23876953,0.14550781,48.954197,92.61069,30.51145,17
0.08239746,0.21173096,0.11804199,43.458015,112.183205,37.389313,17
0.07171631,0.18218994,0.056396484000000004,60.21374,101.79389,39.328243,17
0.05706787,0.13873291,0.049438477,58.633587,103.31298000000001,42.099236,17
0.06506348,0.10662842,0.043151855,54.099236,82.51908,34.267174,17
0.0635376,0.09216308599999999,0.043029785,36.030533,67.73283,29.526718,17
0.057495117000000005,0.109375,0.040649414,11.557252,41.595420000000004,12.839694999999999,17
0.06414795,0.15631104,0.07141113,-6.3053436,33.717556,5.190840000000001,17
0.075683594,0.21142578,0.06652832,-0.38931298,23.809160000000002,5.6793895,17
0.07611084,0.25317383,0.07458496,17.89313,18.740458,12.793892999999999,17
0.07598877,0.26086426,0.15032959,26.114504,5.7099237,11.709924,17
0.08862305,0.2736206,0.15551758,6.190840000000001,5.473282299999999,-4.1374044,17
0.09918213,0.30389404,0.15209961,1.221374,-3.8778627,-15.709923999999999,17
0.10968017599999999,0.289917,0.15032959,5.2137402999999996,-16.12977,-15.450381,17
0.13848877,0.30340576,0.17254639,-4.2519083,-15.40458,-27.389313,17
0.16766357,0.300354,0.14007568,-5.0992365,-26.389313,-29.740458,17
0.16516113,0.2559204,0.15673828,-16.282442,-40.664124,-34.580154,17
0.18353271,0.20233154,0.13806152,-24.198473,-45.51145,-49.580154,17
0.22912598,0.18786621,0.11553955,-35.137405,-37.419846,-54.74046,17
0.21594238,0.21228027,0.10900879,-51.404579999999996,-49.274809999999995,-46.862595,17
0.19299316,0.19824219,0.10736084,-18.015266,-46.946564,-28.145039,17
0.14270020000000003,0.1765747,0.07244873,-13.419847500000001,-67.778625,-10.328244,17
0.10205078,0.13946533,0.058044434000000006,-17.954199,-75.68701999999999,-1.3664121999999999,17
0.06701660000000001,0.1293335,0.047180176,-38.206109999999995,-86.74809,-13.923664000000002,17
0.04815674,0.12561035,0.070495605,-46.503820000000005,-75.34351,-18.10687,17
0.023803711,0.13165283,0.08319092,-48.816795,-82.503815,-19.732824,17
0.016784668,0.11096191400000001,0.08770752,-55.40458,-86.56489,-26.641221999999996,17
-0.000305,0.14868164,0.11401367,-76.65649,-70.64886,-38.778625,17
0.01348877,0.22210693,0.09399414,-59.793890000000005,-54.633587,-35.83206,17
0.023376465,0.28021240000000003,0.07482910000000001,-5.9389315,-32.14504,-14.80916,17
0.030273438,0.32989502,0.06744385,21.633587,-13.832060999999998,1.4961832,17
0.05340576,0.29974365,0.07879639,27.900763,20.664122,20.06107,17
0.10266113,0.27294922,0.14959717,6.8015265,59.580154,11.282442999999999,17
0.12261963,0.39569092,0.043273926,-25.12977,6.183206,-28.755726,17
0.08685303,0.44128418,0.03289795,31.687022999999996,24.343512,-5.0305343,17
0.12176514,0.24530029999999997,0.15582275,-2.4122138,-35.770992,-54.87786,17
0.13409424,0.20385742,0.080566406,-0.64122134,-39.17557,-18.198473,17
0.13488770000000003,0.168396,0.14135742,-38.297709999999995,-55.541985,-45.183205,17
0.14959717,0.24291992,0.17767334,-26.694656,0.8244275,-9.603053,17
0.1416626,0.29309082,0.20611572,11.9007635,17.435114000000002,5.557252,17
0.12145996,0.29516602,0.23382568,61.35878,30.396946000000003,14.870229,17
0.10076904,0.24737549,0.15576172,59.0229,75.47328,30.992366999999998,17
0.07623291,0.21826172,0.110839844,41.519085,106.32061000000002,40.160305,17
0.06439209,0.17602539,0.09313965,54.71755600000001,102.92367,43.129771999999996,17
0.05316162,0.13214111,0.08032226599999999,57.87786,108.58015400000001,54.221375,17
0.046081542999999996,0.10357666,0.04840088,48.091602,103.67939,54.198475,17
0.042419434000000006,0.09552002,0.04925537,41.16794,91.854965,46.603054,17
0.041137695,0.10064697,0.041320800000000005,28.564885999999998,73.9313,37.526720000000005,17
0.046691895,0.14343262,0.04626465,6.6335880000000005,66.183205,25.694656,17
0.06262207,0.21392822,0.07861328,6.374046,55.12214,17.259542,17
0.06610107400000001,0.27404785,0.08581543,27.641221999999996,43.099236,19.503817,17
0.07702637,0.28363037,0.10668945,47.274809999999995,32.610687,26.74809,17
0.08319092,0.26159668,0.14251709,17.290077,23.389313,11.709924,17
0.10278319999999999,0.29858398,0.1552124,-0.54198474,-3.3893129999999996,-12.160305000000001,17
0.10668945,0.31146240000000003,0.11035156,15.587786999999999,-23.053434,-12.374044999999999,17
0.12060547,0.29205322,0.10546875,5.6488547,-22.877863,-19.648854999999998,17
0.14941406,0.2947998,0.12609863,-7.1297708,-38.78626,-31.480916999999998,17
0.16229248,0.28436279999999997,0.1665039,-18.61832,-47.44275,-36.46565,17
0.15740967,0.24475098,0.14581299,-39.14504,-74.8855,-52.137405,17
0.16949463,0.18164062,0.124816895,-32.091602,-67.38931,-55.251906999999996,17
0.20715332,0.17858887,0.1696167,-49.381679999999996,-51.190838,-54.335876,17
0.19958496,0.19610596,0.10913086,-51.412212,-60.893130000000006,-42.503820000000005,17
0.16534424,0.17340088,0.07397461,-20.458015,-40.770992,-19.984734,17
0.12908936,0.14819336,0.042419434000000006,-0.045801528,-60.549618,-5.2977099999999995,17
0.09680176,0.118652344,0.042907715,-10.946565,-64.07633,4.10687,17
0.056640625,0.123535156,0.022338867000000002,-31.57252,-69.26717,-6.9389315,17
0.044677734000000004,0.1161499,0.054016113,-49.503820000000005,-76.64886,-14.61832,17
0.01171875,0.14428711,0.08178711,-67.38931,-81.23664000000001,-36.839695,17
-0.002563477,0.17364502,0.08563232400000001,-80.854965,-76.30534,-49.496179999999995,17
-0.009033203,0.21185303,0.07849121,-73.83969,-52.427483,-54.30534399999999,17
0.050720215,0.25506592,0.08099365,-9.709924,-29.198473,-23.244274,17
0.056396484000000004,0.2623291,0.07269287,35.183205,-14.648855,1.1297709999999999,17
0.07434082,0.30053709999999995,0.08868408,34.725190000000005,-5.4885497,10.9007635,17
0.09387207,0.28277588,0.07543945,21.183207,22.251910000000002,24.473282,17
0.12597656,0.24438477,0.15582275,-17.595419,47.801525,24.404581,17
0.088378906,0.39337158,0.05444336,-26.366413,-32.389313,-29.10687,17
0.020874023000000002,0.38079834,0.07989502,-13.335876999999998,-11.175572,-30.374046000000003,17
0.046203613,0.29144287,0.15350342,-59.267174,-48.946564,-64.46565,17
0.07855224599999999,0.25317383,0.054504395,-14.007632999999998,-6.343511599999999,-21.145039,17
0.10211182,0.18304443,0.13616943,24.61832,-6.1679387000000006,-1.1984733,17
0.13739014,0.20837402,0.19354248,10.251908,32.389313,7.9160304,17
0.16571045,0.28729248,0.23461914,14.2213745,40.969467,11.954199000000001,17
0.13140869,0.3098755,0.20526123,59.50382,48.282444,19.839695000000003,17
0.10180664,0.24230957,0.17340088,62.55725,81.52672,43.55725,17
0.07775879,0.1986084,0.10827637,39.89313,114.74045600000001,44.251907,17
0.07104492,0.15490723,0.10198974599999999,57.221375,103.35878000000001,45.030533,17
0.05230713,0.12414551,0.09594726599999999,54.908398,107.45038000000001,48.91603,17
0.06323242,0.09820557,0.06994629,49.015266,102.84733,48.435116,17
0.05242919999999999,0.07891846,0.06555176,38.74046,73.816795,43.229008,17
0.055114746,0.095825195,0.08392334,11.404580000000001,68.58778000000001,29.641221999999996,17
0.06341553,0.16479492,0.11022949,-9.312977,53.18320500000001,15.687023000000002,17
0.066589355,0.24951172,0.10235596,9.122137,47.541985,15.526717000000001,17
0.06890869,0.2786255,0.10900879,38.48855,45.53435,26.931296999999997,17
0.06793213,0.26464844,0.13458252,35.0229,32.14504,23.732824,17
0.07305908,0.26348877,0.14733887,8.389313000000001,14.297709,1.8167938999999997,17
0.08111572,0.30743408,0.13854979999999997,4.0610685,0.54198474,-11.816792999999999,17
0.08416748,0.31237793,0.12939453,14.160305,-1.7175573,-6.396946400000001,17
0.099487305,0.28222656,0.11358642599999999,6.8320612999999994,-5.633588,-7.4732823,17
0.13171387,0.27545166,0.10107422,-2.0,-17.931297,-19.206106,17
0.15502929999999998,0.2701416,0.15240479,6.778625999999999,-19.076335999999998,-28.610687,17
0.16333008,0.22467041,0.17407227,-20.465649,-43.648853,-37.961834,17
0.19244385,0.20709229,0.1529541,-27.198473,-40.045803,-39.053436,17
0.23449707,0.19268799,0.1227417,-28.29771,-43.633587,-45.931297,17
0.23693848,0.20568848,0.15515137,-33.76336,-45.381679999999996,-30.465649,17
0.18914795,0.19549560000000002,0.10784912,-21.10687,-59.931297,-36.17557,17
0.15026855,0.15997314,0.09411621,-7.961832000000001,-76.87023,-19.694656,17
0.10070801,0.12078857400000001,0.06811523400000001,-22.343512,-88.29008,-12.145039,17
0.06335449,0.12860107,0.09020996,-50.030533,-96.35878000000001,-19.022902,17
0.037841797,0.11425781,0.07952881,-53.076336,-99.099236,-14.503817000000002,17
0.010375977,0.13439941,0.08422851599999999,-73.16794,-104.9313,-23.977098,17
-0.004150391,0.16790771,0.12634277,-68.12977,-86.67939,-28.839695000000003,17
-0.013549805,0.19885254,0.08245849599999999,-75.770996,-71.91603,-43.44275,17
-0.001708984,0.22949219,0.11645508,-41.053436,-43.404579999999996,-27.122137,17
0.012878418,0.26177979999999995,0.0960083,18.282442,-9.076336,-1.6641221000000002,17
0.031433105,0.26019287,0.07983398400000001,42.274809999999995,20.595419,13.0,17
0.057800292999999996,0.26379395,0.06488037,46.816795,55.908398,24.679389999999998,17
0.09478760000000001,0.28295898,0.08508301,34.427483,77.29008,20.519083,17
0.13830566,0.30389404,0.14379883,-5.763358599999999,48.76336,6.740458,17
0.119262695,0.4366455,0.03314209,17.305344,28.274809,-7.29771,17
0.093566895,0.30255127,0.1605835,-40.114502,-21.595419,-51.503820000000005,17
0.09277344,0.27471924,0.09301758,-18.832062,-49.648853,-53.22900799999999,17
0.09106445,0.1741333,0.090026855,-8.519084,-45.778625,-33.335876,17
0.12261963,0.24047852,0.1270752,4.091603299999999,10.175572,-11.488549,17
0.14624023,0.25463867,0.19708252,21.091601999999998,22.160304999999997,1.8854961,17
0.14996338,0.28070068,0.20056152,34.351147,38.328243,9.816792999999999,17
0.121032715,0.27667236,0.17211914,47.694656,46.702290000000005,17.908398000000002,17
0.08068848,0.22918701,0.13360596,44.91603,87.44275,36.694656,17
0.07659912,0.19213867,0.12164307,46.251907,105.50381499999999,43.648853,17
0.06585693,0.15515137,0.07489014,51.76336,104.51908,44.076336,17
0.06713867,0.11810303,0.06689453,47.496179999999995,103.0,45.78626,17
0.055236815999999994,0.10028076,0.057006836,36.732826,88.73283,41.503820000000005,17
0.05291748,0.09417724599999999,0.058898926,31.015265999999997,74.9542,37.496179999999995,17
0.0647583,0.10198974599999999,0.059143065999999994,18.068703,68.40458000000001,33.503820000000005,17
0.06292724599999999,0.1538086,0.07397461,2.053435,55.923664,20.977098,17
0.06781006,0.19952393,0.05810547,8.847328,50.251907,15.007632999999998,17
0.078063965,0.24896239999999997,0.13781738,23.633587,35.770992,18.259542,17
0.08453369,0.30773926,0.09027099599999999,0.36641222,-9.870229,-8.244275,17
0.08782959,0.32916259999999997,0.16882324,9.526717,-25.877863,-16.145039,17
0.09466553,0.30145264,0.123046875,8.358779,-26.244274,-8.251908,17
0.107299805,0.2909546,0.16772461,2.5419848,-38.603054,-21.854961,17
0.15118408,0.26513672,0.119628906,-17.648854999999998,-39.0229,-47.251907,17
0.19543457,0.20581055,0.16778564,0.5496183000000001,-37.374046,-47.954197,17
0.25268555,0.19073486,0.12567139,-23.503817,-36.473279999999995,-42.244274,17
0.23748779999999997,0.17077637,0.1352539,-18.244274,-59.69465600000001,-42.030533,17
0.16937256,0.19042969,0.06506348,-20.137404999999998,-48.618320000000004,-39.221375,17
0.13195801,0.14294434,0.05712890599999999,-5.9007635,-46.51145,-23.854961,17
0.09423828,0.11694336,0.042114257999999995,-7.6183205,-47.603054,-6.816794,17
0.06652832,0.10241699,0.06854248,-14.175572,-64.26717,1.5267175,17
0.037353516,0.113098145,0.095214844,-38.068703,-70.89313,-4.2061067,17
0.028991700000000002,0.13366699,0.10205078,-47.190838,-75.30534,-5.6870227,17
0.011535645,0.16900635,0.079589844,-50.160305,-71.69466,-10.129771,17
0.006469727,0.18676758,0.12219238,-40.641220000000004,-65.9313,-7.0152674,17
0.01184082,0.21362305,0.11999512,-33.12214,-42.801525,-9.725191,17
0.025634766,0.2541504,0.12817383,-12.160305000000001,-17.366413,-4.2977099999999995,17
0.036132812,0.29437256,0.09417724599999999,2.3511450000000003,6.923664,0.27480915,17
0.04425049,0.3357544,0.09735107400000001,19.541985,23.465649,8.007633,17
0.08972168,0.33093262,0.07434082,28.656488,44.9771,13.755725,17
0.12011719,0.31188965,0.14068604,10.0992365,23.610687,-1.6870228999999999,17
0.10571289,0.35754395,0.018554688,9.862596,-6.4961834000000005,-14.59542,17
0.07135010000000001,0.28833008,0.13739014,-80.25954399999999,-59.51145,-74.9313,17
0.09735107400000001,0.27838135,0.064941406,-30.068703000000003,-47.93893,-45.87786,17
0.08703613,0.21160889,0.12719727,-3.7862597,-39.91603,-26.633587,17
0.11376953,0.25598145,0.19952393,2.129771,7.1221375,-3.4503817999999997,17
0.11877441400000001,0.29107666,0.21807861,35.16794,25.900763,2.1450381000000003,17
0.13360596,0.31286620000000004,0.20227051,44.114502,52.076336,13.106871,17
0.09893799,0.24963379,0.15753174,48.274809999999995,76.43511,29.442749,17
0.09155273400000001,0.21673584,0.13647461,44.229008,103.47328,44.198475,17
0.06970215,0.16967773,0.10394287,53.656490000000005,113.66412,49.93893,17
0.06469726599999999,0.14123535,0.07696533,51.89313,116.47328,49.549618,17
0.06518555,0.111206055,0.080200195,48.305344,113.67175,49.687022999999996,17
0.048583984000000004,0.10107422,0.09991455,47.55725,114.48855,51.564884,17
0.051879882999999995,0.09136963,0.061279297,41.519085,119.20611000000001,49.12214,17
0.06561279,0.09564209,0.08135986,30.23664,104.92367,44.801525,17
0.07739258,0.15435791,0.10571289,14.343511999999999,101.66412,27.671754999999997,17
0.08624267599999999,0.23345947,0.07623291,2.3435113,60.38168,7.70229,17
0.08355713,0.328125,0.055480957000000004,2.6793892,31.625953999999997,4.4580154,17
0.076171875,0.3279419,0.07531738,10.335877,14.992367000000002,4.183206,17
0.09478760000000001,0.28662109999999996,0.12451172,18.12977,-2.3664122000000005,-1.1450381,17
0.09320068,0.26635742,0.14807129,26.366413,-19.267176,-4.3893127,17
0.10766601599999999,0.26177979999999995,0.12408447,15.534351000000001,-28.259542,-18.251910000000002,17
0.12768555,0.29144287,0.11810303,-12.251908,-35.709922999999996,-32.610687,17
0.13531494,0.31707764,0.15368652,-9.923664,-50.015266,-41.129771999999996,17
0.15789795,0.2718506,0.15051270000000003,-18.076335999999998,-47.183205,-44.160305,17
0.19189453,0.21826172,0.14385986,-24.419847,-61.458015,-39.08397,17
0.237854,0.23333739999999997,0.09094238,-34.83206,-43.160305,-19.732824,17
0.234375,0.07684326,0.17877197,-12.534351,-44.183205,-8.030535,17
0.18450928,0.20007324,0.055541992000000005,-29.137404999999998,-22.633587,-35.328243,17
0.15509033,0.16333008,0.030822753999999997,-9.793892999999999,-29.030534999999997,-23.725191,17
0.11450195,0.11437988,0.027709961,-19.549618,-35.0229,-2.9160306,17
0.06915283,0.10778808599999999,0.05682373,-35.183205,-75.73283,-2.6488549999999997,17
0.022399902000000003,0.11761474599999999,0.07171631,-71.80153,-88.26717,-22.717558,17
-0.012634277,0.15081787,0.040527344,-82.83969,-98.51145,-40.496179999999995,17
-0.018859863,0.17559814,0.05230713,-93.28244000000001,-86.01527,-51.885498,17
-0.014587402,0.19030762,0.12683105,-79.9771,-73.10687,-50.885498,17
0.006103516,0.23535156,0.07299805,-40.412212,-48.587788,-38.648853,17
0.032104492000000005,0.2635498,0.06005859400000001,11.030535,-27.61832,-16.099237,17
0.05718994,0.30737305,0.061950684000000006,25.786259,4.3206105,3.534351,17
0.09326172,0.29718018,0.14630127,16.251910000000002,37.450382,17.854961,17
0.12768555,0.2888794,0.20263672,13.7786255,34.87786,7.10687,17
0.12158203,0.3560791,0.08825683599999999,3.8473281999999998,18.671754999999997,-4.908396700000001,17
0.06311035,0.36279297,0.10650635,-10.938931,-7.557252,-39.183205,17
0.0715332,0.3112793,0.1506958,-30.839695000000003,-21.557251,-53.78626,17
0.10253906,0.21179199,0.16174316,-16.10687,-35.015266,-20.305344,17
0.12670898,0.19604492,0.16088867,-4.221374,-45.244274,-24.076335999999998,17
0.15386963,0.2006836,0.19793701,1.6793894,-19.91603,-9.030535,17
0.15667725,0.23754883,0.22393799,15.709923999999999,-6.343511599999999,-4.9007635,17
0.12774658,0.28460693,0.24322510000000003,38.007633,5.3053436,1.7557251,17
0.08923339999999999,0.27624512,0.19622803,73.64886,65.80153,25.091601999999998,17
0.07745361,0.23846436,0.13513184,65.40458000000001,114.64886000000001,41.687022999999996,17
0.06652832,0.19006348,0.11779785,76.58015400000001,114.381676,49.335876,17
0.058532715,0.14239502,0.10455322,61.206109999999995,126.78626000000001,50.595420000000004,17
0.05041504,0.11816406,0.0836792,52.809162,118.63358999999998,52.068703,17
0.054138184000000006,0.10327148400000001,0.08898926,35.778625,111.229004,46.572517,17
0.052124023,0.09533691400000001,0.089904785,33.076336,89.52672,41.679390000000005,17
0.054016113,0.09826660000000001,0.08923339999999999,21.595419,78.05344000000001,30.557251,17
0.05529785,0.13830566,0.06713867,-0.8167939000000001,64.19847,16.832062,17
0.066223145,0.20812988,0.081848145,3.2290077,44.305344,4.6412214999999994,17
0.061401367000000005,0.2902832,0.10986328,7.3511453,21.603054,-2.3969467,17
0.06951904,0.32720947,0.13446045,20.763360000000002,8.21374,1.6183206,17
0.08392334,0.34820557,0.15716553,18.328245000000003,0.70229006,-0.16030534,17
0.09814453,0.34417725,0.17932129,5.2519083,-15.0,-7.0458016,17
0.10717773400000001,0.3013916,0.12445068,8.977099,-19.93893,-11.061069,17
0.12701416,0.31994629999999996,0.12634277,0.9312976999999999,-35.625954,-25.152672,17
0.13848877,0.3223877,0.09814453,13.458015,-36.969467,-26.458015000000003,17
0.13189697,0.26654053,0.13983154,3.0305343,-47.961834,-27.687022999999996,17
0.15124512,0.2008667,0.12219238,-14.038167999999999,-45.595420000000004,-42.358779999999996,17
0.18933105,0.16210938,0.13861084,-16.038168,-43.961834,-41.366413,17
0.21099854,0.1977539,0.11419678,-49.412212,-44.25954,-53.564884,17
0.18383789,0.19946289,0.11938476599999999,-33.351147,-66.52672,-29.564885999999998,17
0.15539551,0.16156006,0.095581055,-10.465649,-61.938930000000006,-17.022902,17
0.12530518,0.12756348,0.10131836,-24.473282,-80.01527,-10.564885,17
0.09875488,0.10986328,0.10278319999999999,-35.603054,-89.16031,-5.015267400000001,17
0.060913086,0.11291504,0.08648682,-47.549618,-95.938934,-9.480916,17
0.040283203,0.13031006,0.10845947,-63.389313,-98.145035,-17.442749,17
0.01361084,0.16229248,0.09954834,-74.56489,-105.061066,-26.190839999999998,17
-0.004150391,0.17175293,0.1281128,-101.38931,-90.16794,-41.55725,17
-0.00567627,0.22021484,0.1359253,-79.72519,-83.15267,-37.190838,17
-0.001953125,0.24761963,0.11236572,-24.12977,-59.908398,-13.152672,17
0.007446289,0.2565918,0.081848145,6.6870227,-27.93893,-0.53435117,17
0.018859863,0.28894043,0.10046387,12.541985,16.404581,5.0305343,17
0.04650879,0.32348633,0.0960083,22.908398000000002,66.36641,16.022902,17
0.10614014,0.38085938,0.11450195,36.305344,105.27481,24.816793,17
0.10913086,0.3499756,0.12170410000000002,38.984734,38.038166,1.7557251,17
0.07678223,0.28955078,0.120910645,16.274809,4.10687,-55.77099200000001,17
0.07897949,0.3381958,0.072753906,-52.61832,-35.900764,-75.35878000000001,17
0.11816406,0.25976562,0.04937744,0.8091603,-6.2290077,-3.9007633000000004,17
0.121154785,0.24884033,0.09777832,-13.656488000000001,-20.564885999999998,-33.53435,17
0.15167236,0.21838379,0.19232178,20.435114000000002,19.396946,-0.21374045,17
0.14453125,0.26922607,0.18353271,29.89313,40.0229,9.351144999999999,17
0.125,0.25354004,0.15179443,50.396946,45.801525,10.366412,17
0.09173584,0.2244873,0.11407471,46.450382,60.709922999999996,18.755726,17
0.07366943,0.18872070000000002,0.08544922,40.549618,71.71755999999999,22.564885999999998,17
0.06121826,0.1640625,0.10491943,42.282444,72.21374,28.961832,17
0.05303955,0.12835693,0.04486084,34.206109999999995,70.37405,26.48855,17
0.04852295,0.109436035,0.10559082,23.809160000000002,58.61832,26.007633,17
0.037841797,0.11108398400000001,0.03100586,16.473282,43.526720000000005,24.183207,17
0.03869629,0.14868164,0.07293701,12.198473,42.725190000000005,16.12977,17
0.047912598,0.1899414,0.12823486,18.610687,42.755726,18.679389999999998,17
0.05444336,0.22833252,0.06872558599999999,18.89313,39.603054,16.534351,17
0.059204099999999996,0.26776123,0.14758301,22.221375,39.305344,12.717557000000001,17
0.07513428,0.302063,0.109436035,17.694656,35.93893,5.519083999999999,17
0.10198974599999999,0.32507324,0.11114502,10.290076,32.816795,1.3969465,17
0.11395264,0.30847168,0.07446289,26.0,14.076335999999998,4.0152674,17
0.14428711,0.28308105,0.042541504,13.679389000000002,-1.7633588,-0.21374045,17
0.18762207,0.27850342,0.09057617,17.770992,-34.954197,-5.412214,17
0.16363525,0.29150390000000004,0.12359619,-10.160305000000001,-50.297709999999995,-15.053435,17
0.17016602,0.24591064,0.14746094,-13.244275,-74.862595,-30.519083000000002,17
0.1819458,0.19415283,0.13189697,-23.343512,-88.1145,-39.076336,17
0.21130371,0.1352539,0.12713623,-38.74046,-106.16031000000001,-35.17557,17
0.19525146,0.1685791,0.16284179999999998,-95.458015,-127.24428,-44.10687,17
0.15167236,0.21185303,0.064453125,-73.183205,-110.28244,-42.610687,17
0.12927246,0.19140625,0.103027344,-30.053434000000003,-97.07633,-19.12977,17
0.09051514,0.15057373,0.07537842,-19.206106,-89.39695,2.2366412,17
0.04876709,0.12554932,0.0914917,-15.351145,-97.31298000000001,11.106871,17
0.020507812,0.12945557,0.08825683599999999,-36.55725,-91.770996,1.9923664,17
0.002685547,0.14697266,0.1015625,-39.312977000000004,-90.58015400000001,-1.9236640999999999,17
-0.0021972660000000002,0.16540527,0.13464355,-34.351147,-74.56489,-5.9770994,17
0.010009766,0.18267822,0.119140625,-34.053436,-60.038166000000004,-9.984733,17
0.020446777,0.20928955,0.11871338,-33.732826,-47.0229,-12.526717,17
0.033813477,0.24969482,0.11254883,-36.404579999999996,-27.770992,-9.442748,17
0.03326416,0.28479004,0.12530518,-28.694656,-3.4885497,-2.480916,17
0.053100586,0.28997803,0.11315918,-16.458015,30.732824,4.961832,17
0.08148193,0.3466797,0.19781494,-1.259542,69.0687,8.412213000000001,17
0.11425781,0.37945557,0.07128906,25.839695000000003,78.92367,9.580152499999999,17
0.11639404,0.3935547,0.05694580000000001,70.48092,64.26717,-16.305344,17
0.15124512,0.43566895,-0.04058838,11.954199000000001,63.366413,-0.45801526,17
0.16900635,0.19854736,0.056762695,32.129771999999996,-41.923664,19.824427,17
0.14605713,0.13446045,0.13140869,15.488548999999999,-35.221375,-13.374045,17
0.16363525,0.22760010000000003,0.18414307,-56.23664,-38.496179999999995,-44.0229,17
0.13232422,0.23541260000000003,0.20385742,-35.82443,-32.46565,-28.961832,17
0.11358642599999999,0.28466797,0.168396,3.5419848,6.183206,-7.6412214999999994,17
0.08270264,0.28192140000000004,0.12585449,52.335876,45.687022999999996,21.977098,17
0.07104492,0.21533203,0.12225342,69.21374,85.30534,40.129771999999996,17
0.056030273,0.16778564,0.18682861,55.435116,102.1145,38.564884,17
0.04833984400000001,0.12762451,0.11059569999999999,53.312977000000004,89.938934,37.183205,17
0.027832031,0.095825195,0.10040283,35.030533,83.00764000000001,31.267176,17
0.021728516,0.09185791,0.0960083,20.969465,71.84733,24.595419,17
0.024108887000000002,0.09527588,0.08703613,12.167939,62.450382,21.290077,17
0.039489746,0.13983154,0.09173584,8.251908,53.48855,17.343512,17
0.048217773,0.19909668,0.12548828,2.7557251,48.137405,9.106871,17
0.06640625,0.28845215,0.11877441400000001,8.511451,52.458015,9.19084,17
0.078125,0.31365967,0.10241699,25.89313,55.49618,15.122137,17
0.09307861,0.28240967,0.10192871,24.351145000000002,54.18320500000001,7.6793895,17
0.13482666,0.29180908,0.07611084,22.648854999999998,39.114502,-2.7862597,17
0.16217041,0.31201172,-0.000183,23.564885999999998,16.458015,0.36641222,17
0.16284179999999998,0.2838745,0.05316162,14.923664000000002,5.3816795,2.2366412,17
0.15905762,0.30828857,0.15747070000000002,-5.3206105,-21.076335999999998,-9.488549,17
0.15386963,0.30578613,0.11846924,-7.183206,-22.175573,-22.671754999999997,17
0.13482666,0.2732544,0.12298584,4.2061067,-31.671754999999997,-23.435114000000002,17
0.15386963,0.19580078,0.10388183599999999,1.4274809,-21.458015,-30.946565999999997,17
0.18725586,0.14501953,0.11920166,-3.8931297999999996,-24.0,-35.671757,17
0.20214844,0.16064453,0.1428833,-39.038166,-41.656490000000005,-35.687022999999996,17
0.15673828,0.16491699,0.09814453,-23.297710000000002,-72.824425,-36.954197,17
0.14385986,0.14953613,0.080200195,-13.358779,-54.53435,-31.030534999999997,17
0.11260986,0.13623047,0.09893799,-11.175572,-58.30534399999999,-16.114504,17
0.08050537,0.10778808599999999,0.06793213,-17.145039,-63.389313,-6.7862597000000004,17
0.070373535,0.11999512,0.10827637,-30.259542,-62.30534399999999,-8.160305000000001,17
0.03967285,0.14831543,0.10308838,-42.15267,-73.496185,-12.832061,17
0.03564453,0.15063477,0.07928467,-37.78626,-58.748093000000004,-10.129771,17
0.018310547,0.17541504,0.117370605,-58.46565,-49.419846,-18.442749,17
0.008789063,0.24133301,0.10986328,-73.87023,-50.366413,-37.290077000000004,17
0.018127441,0.2925415,0.07940674,-29.038168,-30.366413,-16.984734,17
0.025390625,0.29632568,0.07592773400000001,15.717557000000001,-7.4198475,3.3358779999999997,17
0.040222167999999996,0.28485107,0.08673096,28.908398,15.526717000000001,15.671756,17
0.06463623,0.29919434,0.0793457,16.961832,45.885498,11.839694999999999,17
0.10595703,0.29296875,0.17218018,25.229008,58.37404599999999,11.320611,17
0.09155273400000001,0.35516357,0.13208008,6.923664,16.137404999999998,-21.603054,17
0.05670166,0.31695557,0.08428955,-0.5801527,-30.10687,-55.61832,17
0.07965088,0.31158447,0.10784912,-36.351147,-4.2671757,-56.251906999999996,17
0.08465576,0.24194336,0.07379150400000001,38.343509999999995,0.061068702,-3.3053436,17
0.104003906,0.25689697,0.17883301,1.091603,30.022902000000002,-11.9007635,17
0.14276123,0.27142334,0.20880127,7.931298,32.297709999999995,-0.71755725,17
0.14715576,0.30950928,0.25891113,33.282444,69.56489,12.419847500000001,17
0.144104,0.29577637,0.20281982,42.10687,77.381676,22.030535,17
0.13061523,0.21411133,0.19750977,54.290077000000004,84.816795,34.038166,17
0.10473633,0.17193604,0.15856934,38.755726,107.68701999999999,33.9771,17
0.09118652,0.14117432,0.14440918,36.641220000000004,106.91603,39.770992,17
0.07061767599999999,0.10577392599999999,0.080566406,30.76336,104.34351,37.015266,17
0.07244873,0.08026123,0.09851074,29.961832,101.8855,37.221375,17
0.05322265599999999,0.06677246,0.08563232400000001,21.351145000000002,78.79389,26.67939,17
0.060546875,0.08605957,0.08361816400000001,15.931297,67.39695,19.778625,17
0.08746338,0.12835693,0.044677734000000004,-40.312977000000004,16.816793,-1.8625953999999998,17
0.07220459,0.27020264,0.038208007999999995,-91.73283,-11.366412,-22.732824,17
0.06347656,0.34631348,0.114746094,-16.442749,-25.412214000000002,-2.8625952999999997,17
0.045532227,0.32110596,0.11285400400000001,25.786259,-15.152672,12.450381,17
0.07434082,0.30401609999999996,0.17364502,17.015266,9.587786999999999,5.259542,17
0.0836792,0.33044434,0.14666748,15.305344,7.3206105,-7.6870227,17
0.09594726599999999,0.31671143,0.12902832,36.16794,13.282442999999999,1.8473282,17
0.12701416,0.29138184,0.09649658,34.076336,8.839694999999999,-7.3816795,17
0.14447021,0.29522705,0.13433838,13.793892999999999,1.7557251,-11.854961,17
0.14569092,0.29272459999999995,0.12438965,11.541985,-11.358779,-17.748089999999998,17
0.15747070000000002,0.22003174,0.11505127,4.7862597000000004,-25.358778,-22.862595000000002,17
0.19689941,0.15618896,0.14117432,-3.3053436,-26.91603,-32.374046,17
0.22467041,0.1618042,0.15942383,-39.190838,-45.435116,-40.404579999999996,17
0.19232178,0.16351318,0.14923096,-43.992367,-76.12214,-30.167938,17
0.14825439999999998,0.15795898,0.10131836,-37.46565,-65.80915999999999,-29.137404999999998,17
0.10864258,0.12792969,0.053344727,-18.923664000000002,-75.37405,-8.732824,17
0.08264160000000001,0.10961914,0.06549072,-22.992367,-66.33588,-1.9770991999999998,17
0.068481445,0.10504150400000001,0.08483887,-28.435114000000002,-74.36641,-2.961832,17
0.042297363,0.14379883,0.06341553,-41.17557,-65.41984599999999,-6.7862597000000004,17
0.030090332,0.159729,0.08728027,-40.030533,-71.12214,-9.389313000000001,17
0.011657715,0.19189453,0.11126709,-58.038166000000004,-61.83206,-20.93893,17
0.006286621,0.23657227,0.12066650400000001,-64.08397,-54.47328,-27.89313,17
0.017578125,0.25964355,0.087402344,-20.877863,-41.908398,-15.648855,17
0.03302002,0.24090576,0.08508301,7.328244000000001,-26.549618,-6.183206,17
0.04473877,0.27661133,0.06011963,5.0,-2.3816792999999996,-5.59542,17
0.10827637,0.28894043,0.12322998,-4.526717700000001,47.183205,11.343511999999999,17
0.11456299,0.4416504,0.023986816,-7.5114503,12.267176,-16.145039,17
0.09362793,0.35632324,0.18450928,-25.954199,-5.3511453,-40.618320000000004,17
0.11529541,0.32855225,0.1015625,-9.152672,-33.549618,-43.549618,17
0.09564209,0.19750977,0.13665771,21.030535,-47.687022999999996,-34.78626,17
0.10198974599999999,0.25256348,0.13500977,6.969465700000001,5.2748094000000005,-10.412213000000001,17
0.11499023400000001,0.22460938,0.17553711,21.404581,13.076336,-1.7328244,17
0.12628174,0.20574951,0.1852417,12.229008,36.55725,-0.60305345,17
0.10998535,0.25164795,0.15734863,14.656488000000001,53.099236,10.877863,17
0.09039307,0.24926758,0.12518310000000002,36.633587,82.96947,37.641220000000004,17
0.07421875,0.1920166,0.12078857400000001,51.541985,115.78626000000001,52.87786,17
0.06951904,0.16339111,0.10827637,50.664124,127.40458000000001,55.87786,17
0.07159424,0.14538574,0.09326172,50.160305,131.10687,59.893130000000006,17
0.06915283,0.13195801,0.051635742000000005,52.129771999999996,132.1374,58.702290000000005,17
0.051086426,0.12670898,0.049560547,52.381679999999996,119.74808999999999,54.17556999999999,17
0.057678223,0.13098145,0.10784912,44.801525,116.80916,47.267174,17
0.07946777,0.144104,0.13842773,31.839695000000003,94.9313,30.038168,17
0.08142089999999999,0.2142334,0.12152099599999999,14.328244,50.137405,9.610686999999999,17
0.0635376,0.27313232,0.081848145,18.549618,25.931297,10.389313000000001,17
0.08276367,0.26501465,0.13854979999999997,41.900764,27.007633000000002,23.007633,17
0.10510254,0.26177979999999995,0.19573975,28.358778000000004,14.770992000000001,11.80916,17
0.12231445,0.27526855,0.19006348,4.1297708,-16.801527,-8.946565,17
0.12390137,0.29663086,0.17297363,-7.534351299999999,-55.755726,-21.687023,17
0.1282959,0.28637695,0.15838623,-14.763359,-56.564884,-28.694656,17
0.1416626,0.28961182,0.1741333,-17.541985,-55.83969499999999,-31.755726,17
0.14611816,0.30316162,0.16699219,-16.152672,-48.610687,-39.801525,17
0.15124512,0.25927734,0.18054199,-14.977098999999999,-58.900764,-43.412212,17
0.17340088,0.1975708,0.12780762,-18.641222,-46.21374,-45.198475,17
0.20410156,0.15161133,0.10723877,-22.57252,-58.992367,-46.671757,17
0.19592285,0.16583252,0.10046387,-45.549618,-56.244274,-47.335876,17
0.16766357,0.16485596,0.089782715,-21.10687,-65.29771,-35.778625,17
0.13366699,0.13671875,0.11383057,-12.229008,-71.25191,-16.770992,17
0.1003418,0.12438965,0.1104126,-15.923664000000002,-76.03053,-2.5954200000000003,17
0.07080078,0.11242676,0.11779785,-30.12977,-80.74809,-0.99236643,17
0.050598145,0.14215088,0.05987549,-43.549618,-80.31298000000001,-9.603053,17
0.03503418,0.16082764,0.076171875,-42.10687,-74.66412,-9.9007635,17
0.030151367000000002,0.17352295,0.10357666,-41.0,-64.41221999999999,-8.587786999999999,17
0.018310547,0.20214844,0.097717285,-42.44275,-55.091602,-13.259541500000001,17
0.010864258,0.24212646,0.11096191400000001,-40.320609999999995,-44.541985,-13.702291,17
0.021606445,0.27160645,0.1295166,-14.656488000000001,-20.557251,-4.2519083,17
0.024658202999999997,0.27282715,0.04046631,10.7404585,-6.5038165999999995,2.1984732000000005,17
0.041015625,0.30352783,0.052612305,15.908397,17.610687,-0.9389313,17
0.07684326,0.3381958,0.034240723,23.717558,43.068703,5.7862597000000004,17
0.10839844,0.30749512,0.13275146,0.40458015,38.53435,-7.236641400000001,17
0.08734131,0.33312988,0.09710693,4.8625956,-12.122137,-34.618320000000004,17
0.07287598,0.29241943,0.14550781,-70.65649,-44.793890000000005,-77.72519,17
0.10821533,0.29302979999999995,0.09246826,-9.755725,-27.740458,-28.42748,17
0.10089111,0.26177979999999995,0.099121094,3.5419848,-16.10687,-10.366412,17
0.13555908,0.26641846,0.16845703,-9.083969,0.28244275,-4.145038,17
0.15222168,0.27453613,0.21771239999999997,11.038167999999999,31.946565999999997,10.183207000000001,17
0.14593506,0.30200195,0.18084717,31.664121999999995,48.44275,17.12977,17
0.12982178,0.22760010000000003,0.17755127,51.541985,65.39695,37.290077000000004,17
0.11175537,0.18603516,0.16522217,41.374046,93.20611,42.244274,17
0.09124756,0.15515137,0.12902832,35.702290000000005,94.34351,40.473279999999995,17
0.07489014,0.12963867,0.09234619,35.580154,101.40458000000001,38.48855,17
0.07281494,0.09918213,0.08013916,30.824427000000004,91.37405,38.06107,17
0.06274414,0.08709717,0.08697510000000001,21.946566,78.9313,39.282444,17
0.06689453,0.093811035,0.089660645,14.931297,66.78626,34.412212,17
0.059204099999999996,0.14080810000000002,0.078125,5.221374,53.015266000000004,23.48855,17
0.06347656,0.19281006,0.10644531,12.969465,40.603054,20.923664000000002,17
0.068237305,0.23529053,0.0847168,8.320611,36.46565,17.908398000000002,17
0.06768799,0.27575684,0.09460449,-1.7862595000000001,22.778625,8.335877,17
0.07788086,0.30688477,0.09008789,-1.0534351,2.3053436,-4.7557254,17
0.10626221,0.3470459,0.11486816400000001,1.6259542,-9.305344,-16.229008,17
0.12634277,0.32434082,0.10681152,19.06107,-21.93893,-3.5801528,17
0.12731934,0.2619629,0.08074951,0.7633588000000001,-32.381679999999996,-4.5725193,17
0.16387939999999998,0.25463867,0.10388183599999999,-1.6641221000000002,-48.625954,-18.312977,17
0.16448975,0.27941895,0.11267089999999998,-14.526717000000001,-41.206109999999995,-25.839695000000003,17
0.18041992,0.26245117,0.095825195,-3.7404580000000003,-54.76336,-21.839695000000003,17
0.17071533,0.20031738,0.09112549,1.5801526000000001,-54.778625,-26.740458,17
0.19134521,0.16333008,0.08050537,-0.5114504,-55.221375,-36.23664,17
0.20922852,0.17010498,0.10314941400000001,-26.57252,-61.35878,-35.030533,17
0.17059326,0.17242432,0.10546875,-31.603053999999997,-83.19847,-24.946566,17
0.13275146,0.17224121,0.10467529,-26.0,-79.31298000000001,-19.221375,17
0.10266113,0.15026855,0.08557129,-19.015266,-87.29771,-11.229008,17
0.06549072,0.13909912,0.083862305,-26.793894,-78.816795,-7.6793895,17
0.056640625,0.13171387,0.05871582,-32.694656,-69.183205,-5.9160304,17
0.02960205,0.13916016,0.08770752,-35.9771,-58.267174,-4.053435299999999,17
0.03387451,0.13452148,0.08416748,-33.702290000000005,-46.351147,-3.5648854,17
0.030822753999999997,0.17541504,0.08081055,-25.954199,-34.931297,-0.77862597,17
0.027709961,0.19055176,0.12756348,-28.419846999999997,-17.526718,-2.4732822999999997,17
0.035461426000000004,0.21643066,0.13641357,-23.282442,2.778626,-0.31297709999999995,17
0.047607422,0.24414062,0.15631104,-15.977098999999999,24.755726,0.18320611,17
0.06439209,0.2678833,0.10852051,0.47328246,41.839695,1.4274809,17
0.09246826,0.2966919,0.09814453,10.78626,57.580154,1.3282443000000002,17
0.1519165,0.38763428,0.037902832000000004,14.893129,65.64121999999999,4.9007635,17
0.17382812,0.38226318,0.07183838,29.0,-11.847328,-13.366412,17
0.11987305,0.28234863,0.06011963,-40.687022999999996,-67.79389,-69.00764000000001,17
0.14135742,0.33319092,0.107543945,-145.56488000000002,-83.84733,-100.65649,17
0.11932373,0.2736206,0.17266846,11.763359,-109.9771,-32.053436,17
0.12261963,0.26959229999999995,0.13555908,17.641222,-5.1374044,-13.755725,17
0.14147949,0.23632812,0.22521973,9.595419999999999,6.519083999999999,4.763358599999999,17
0.14099121,0.24053955,0.22192383,14.916031,60.23664,11.068703,17
0.117370605,0.25170898,0.20458984,48.12214,71.96183,31.824427000000004,17
0.099121094,0.21520996,0.14276123,57.809162,113.16793999999999,49.770992,17
0.082092285,0.17700195,0.14172363,57.30534399999999,116.175575,48.473279999999995,17
0.07055664,0.16040039,0.11370849599999999,49.610687,133.0687,43.625954,17
0.04937744,0.11248779,0.08129883,58.22900799999999,121.50381499999999,43.473279999999995,17
0.059143065999999994,0.10272217,0.07171631,54.030533,104.31298000000001,37.229008,17
0.06329346,0.10125732400000001,0.054504395,33.778625,83.25954399999999,27.267176,17
0.07501221,0.16400146,0.062072754,1.6946564999999998,69.9313,13.7786255,17
0.07952881,0.22918701,0.08679199,14.908397,43.053436,10.801527,17
0.07611084,0.27642822,0.097839355,37.923664,33.725190000000005,14.0992365,17
0.08605957,0.29742432,0.13391113,38.25954,27.908398,15.458015,17
0.09710693,0.28735352,0.113220215,27.603053999999997,18.145039,6.9847326,17
0.11071777,0.28375244,0.15655518,4.236641400000001,-0.79389316,-10.442748,17
0.115722656,0.28289795,0.14422607,-2.1908397999999996,-20.099237,-8.648855000000001,17
0.11834717,0.2672119,0.14105225,-8.061069,-28.19084,-16.320610000000002,17
0.12280273400000001,0.28503418,0.124938965,-13.893129,-28.67939,-22.587785999999998,17
0.14147949,0.2960205,0.14636229999999997,-11.114504,-12.244275,-28.343512,17
0.16149902,0.2637329,0.15826416,3.2519082999999998,-15.572519,-37.78626,17
0.19195557,0.22113037,0.15307617,-4.2290077,-10.931297,-48.541985,17
0.23028564,0.18225098,0.14880371,-6.076336,-24.557251,-49.16794,17
0.23937988,0.16925049,0.12988281,-26.76336,-45.427483,-39.206109999999995,17
0.18139648,0.15686035,0.09552002,-26.244274,-60.44275,-33.381679999999996,17
0.14611816,0.13598633,0.08062744,-22.282442,-69.28244000000001,-24.389313,17
0.041625977,0.13006592,0.044128417999999996,-36.08397,-73.28244000000001,-2.5877862,17
0.03503418,0.16339111,0.08477783,-52.725190000000005,-78.68701999999999,-18.664122,17
0.014099121000000001,0.19073486,0.15118408,-94.41984599999999,-86.12214,-49.12214,17
0.03137207,0.26501465,0.1262207,-71.496185,-61.412212,-38.519085,17
0.037231445,0.30303955,0.0871582,-8.2213745,-51.610687,-14.183207000000001,17
0.046691895,0.26251220000000003,0.101501465,14.244275,-42.954197,1.2900764,17
0.047058105,0.26428223,0.046569824,2.2519082999999998,-23.679389999999998,-2.908397,17
0.058044434000000006,0.32708740000000003,0.016845703,-17.267176,-0.19083970000000003,-6.442748,17
0.097595215,0.2793579,0.13201904,2.1374047000000003,34.9771,11.511451,17
0.062316895,0.36828613,0.042663574,-22.778625,-30.61832,-37.816795,17
0.037902832000000004,0.28881836,0.13262939999999998,-64.51908,-37.87786,-66.503815,17
0.09545898400000001,0.34307859999999996,0.076171875,-36.84733,-4.480916000000001,-41.17557,17
0.08850098,0.25769043,0.12036133,44.83206,2.2748091,7.3587785000000006,17
0.14227295,0.25494385,0.20263672,42.10687,59.748093000000004,20.312977,17
0.15167236,0.28729248,0.19158936,22.610687,81.15267,32.55725,17
0.12420654,0.20184326,0.21722412,65.52672,106.58778000000001,44.725190000000005,17
0.10229492,0.16418457,0.11157226599999999,54.17556999999999,118.48092,48.587788,17
0.08416748,0.12786865,0.07482910000000001,48.015266,107.76336,45.0229,17
0.068847656,0.10040283,0.059509277,38.610687,103.45038000000001,42.389313,17
0.07019043,0.07977295,0.089782715,36.969467,87.16031,42.17557,17
0.06811523400000001,0.099121094,0.013916016000000002,21.992367,78.36641,34.793890000000005,17
0.10461426,0.11956787,0.06732178,13.656488000000001,39.885498,17.961832,17
0.08001709,0.21502686,0.05340576,-10.312977,23.534351,3.648855,17
0.08288574,0.2736206,0.11151123,-0.7251908,22.221375,5.5419846,17
0.07800293,0.29290770000000005,0.10559082,14.610686999999999,8.534351,15.854961,17
0.095214844,0.29803467,0.14080810000000002,19.786259,3.6106870000000004,6.2137402999999996,17
0.12322998,0.30407715,0.21069336,10.908397,-16.015266,-2.5648854,17
0.12017822,0.30578613,0.19604492,5.4198474999999995,-24.42748,-4.2824425999999995,17
0.13342285,0.28942870000000004,0.18133545,-0.66412216,-29.694656,-16.145039,17
0.14538574,0.2868042,0.15911865,-10.251908,-35.282444,-19.351145000000002,17
0.15002441,0.27105713,0.14050293,-10.122137,-36.725190000000005,-26.007633,17
0.16033936,0.23541260000000003,0.11694336,-5.5343513,-30.389313,-29.274809,17
0.18487549,0.19390869,0.13763428,-6.091603299999999,-33.580154,-44.229008,17
0.21697998,0.18035889,0.14453125,-22.160304999999997,-48.76336,-54.50382,17
0.21142578,0.17047119,0.16497803,-39.091602,-71.74045600000001,-54.83206,17
0.106933594,0.10717773400000001,0.07775879,-24.603054,-83.71755999999999,-18.786259,17
0.08062744,0.09906006,0.06561279,-33.816795,-79.0458,-9.145039,17
0.06365967,0.10827637,0.084106445,-36.305344,-79.53435,-7.900763499999999,17
0.058044434000000006,0.12133789,0.089904785,-36.381679999999996,-72.21374,-5.480916000000001,17
0.04840088,0.13665771,0.095214844,-37.9771,-70.9771,-4.396946400000001,17
0.049560547,0.15844727,0.11907959,-49.778625,-62.78626,-6.259542,17
0.043151855,0.21929932,0.11877441400000001,-64.70992,-53.137405,-13.145039,17
0.04925537,0.27941895,0.12243652,-51.06107,-36.335876,-3.0687022,17
0.027282715,0.30163574,0.12878418,-15.564885,-45.21374,9.335877,17
0.004272461,0.34375,0.10534668,-20.656488,-38.374046,-8.076336,17
0.06585693,0.33862305,0.06347656,-20.38168,6.2824425999999995,-7.6412214999999994,17
0.043762207000000004,0.41430664,0.06994629,-53.809162,2.1984732000000005,-40.396946,17
0.061523438,0.31744385,0.13226318,-2.557252,-41.503820000000005,-55.099236,17
0.08245849599999999,0.31079102,0.11328125,-56.870228000000004,2.519084,-61.549618,17
0.07891846,0.23211669999999998,0.14471436,60.732826,-14.465648999999999,-13.274809,17
0.10882568,0.20880127,0.18078613,45.770992,53.83206,7.4351144,17
0.13574219,0.22808838,0.19818115,35.038166,46.358779999999996,7.2671757,17
0.15344238,0.26428223,0.20623779999999997,24.702289999999998,77.40458000000001,9.251908,17
0.14624023,0.28033447,0.18676758,51.427483,96.29771,26.244274,17
0.13415527,0.23394775,0.1774292,50.160305,102.51145,28.694656,17
0.11291504,0.20202637,0.14270020000000003,60.885498,111.83206000000001,34.190838,17
0.09106445,0.16949463,0.10186767599999999,56.427482999999995,114.63358999999998,38.564884,17
0.07879639,0.12939453,0.08282471,53.23664,116.01527,41.87786,17
0.06958008,0.104003906,0.07299805,48.519085,106.45038000000001,41.030533,17
