Acc_X,Acc_Y,Acc_Z,Gyr_X,Gyr_Y,Gyr_Z,Label
0.12402344,0.013366699,0.036987305,3.1221373,0.030534351,-2.8625952999999997,0
0.12322998,0.0138549805,0.04260254,2.0992367,0.13740458,-2.7557251,0
0.1239624,0.0134887695,0.021606445,1.5954198999999998,0.03816794,-3.3053436,0
0.12329101599999999,0.013427733999999998,0.031677246,2.221374,-0.07633588,-4.6946564,0
0.1239624,0.01361084,0.052368164,1.4045801000000002,0.6488550000000001,-4.8778625,0
0.12377930000000001,0.013244628999999999,0.055480957000000004,-0.3053435,0.65648854,-4.603053599999999,0
0.12414551,0.012756348,0.026550293,-0.35114503,1.3969465,-4.473282299999999,0
0.12152099599999999,0.013427733999999998,0.026794434,-0.28244275,0.86259544,-5.3053436,0
0.12188721,0.0138549805,0.020019531,0.5496183000000001,-0.6259541999999999,-4.190840000000001,0
0.12188721,0.012573242,0.02154541,0.54198474,0.39694658,-2.312977,0
0.12231445,0.0138549805,0.023803711,0.9465648999999999,0.90839696,-3.3816792999999996,0
0.12213135,0.015014648,0.022949219,3.4351146,0.9389313,-3.5496182000000003,0
0.12268066400000001,0.013000488000000001,0.030334472999999997,3.2595419999999997,1.351145,-2.832061,0
0.12188721,0.014526367,0.00390625,2.9312978,0.41221374,-4.587786,0
0.12237549,0.01373291,0.05065918,4.603053599999999,0.47328246,-3.7175572,0
0.120910645,0.01361084,0.014038086000000002,4.2748094000000005,2.5954200000000003,-5.4274807,0
0.12194824,0.013549805,0.046875,1.8244275,2.038168,-4.2290077,0
0.12188721,0.013427733999999998,0.03253174,2.4732822999999997,2.8396947,-2.7633588,0
0.12121582,0.013183594,0.04827881,1.7938931,2.038168,-3.2442749,0
0.12213135,0.013305663999999998,0.031066895,0.77099234,1.3206106000000002,-4.091603299999999,0
0.12451172,0.013916016000000002,0.030761719,-0.5954198,2.3740457999999998,-4.4274807,0
0.12536621,0.013122558999999999,0.032226562,-0.15267175,2.3664122000000005,-5.6946564,0
0.12438965,0.013427733999999998,0.021972656,-0.57251906,1.2519083999999998,-5.923664,0
0.12548828,0.016662598,0.036743164,-1.1297709999999999,2.3435113,-5.1374044,0
0.12152099599999999,0.011779785,0.015991211,0.48854962,0.9541985000000001,-5.2137402999999996,0
0.1260376,0.0107421875,0.012634277,0.45038167,-0.13740458,-4.8320612999999994,0
0.12335205,0.014160156,0.020202637,1.1526718,0.7099236999999999,-3.5725190000000002,0
0.121154785,0.01373291,0.03753662,2.0839694,0.129771,-4.5419846,0
0.12048339999999998,0.013916016000000002,0.01171875,0.5954198,0.7557252,-3.534351,0
0.12237549,0.014526367,0.006591797,2.1984732000000005,1.7633588,-4.3587785000000006,0
0.12432861,0.014831543,0.038024902,0.8244275,1.8931297999999999,-3.5725190000000002,0
0.12445068,0.014343261999999999,0.011474608999999998,0.38167940000000006,1.091603,-4.0992365,0
0.1274414,0.014038086000000002,0.034301757999999995,-0.90076333,2.2900763,-6.335878,0
0.12670898,0.0138549805,0.0068359375,-1.4198473999999999,0.90076333,-4.89313,0
0.12658691,0.012939453,0.024475097999999997,-2.793893,0.8015267,-5.9923663000000005,0
0.12420654,0.012878418,0.018981934,-2.778626,0.49618322,-5.4656487,0
0.123046875,0.0138549805,0.022460938,-2.3435113,0.015267176,-4.0839696000000005,0
0.119140625,0.0154418945,0.017944336,-0.9541985000000001,0.5114504,-4.526717700000001,0
0.12182617,0.014404297,0.033081055,-0.9236641,2.389313,-4.1755724,0
0.12152099599999999,0.014465332,0.024719237999999998,-0.6870229,1.8625953999999998,-4.0076336999999995,0
0.12377930000000001,0.013061523,0.022705077999999997,0.34351146,2.206107,-4.3893127,0
0.13232422,0.013244628999999999,0.0072021483999999995,-1.8244275,2.687023,-4.0,0
0.13067627,0.018615723,0.006042480500000001,-2.221374,2.8396947,-4.847328,0
0.13085938,0.017456055,0.0014038085999999999,-1.0839695,2.9007633,-5.40458,0
0.12487793,0.015258788999999998,0.0095825195,-1.519084,1.6717557,-5.8015265,0
0.12628174,0.018066406,0.003112793,-0.7099236999999999,1.2290076,-6.1603055,0
0.12145996,0.016906738,0.017211914,0.54198474,1.3587786,-5.396946400000001,0
0.120910645,0.016235351999999998,0.0063476562,3.1755726,0.64122134,-3.1068702,0
0.12512207,0.017822266,0.004699707,3.7328242999999994,1.8778626,-3.3206108,0
0.11743164,0.0154418945,0.013061523,4.519083999999999,1.3435115,-2.2671757,0
0.11975098,0.016113281,0.015991211,4.6106873,2.6641220000000003,-1.9236640999999999,0
0.12322998,0.0234375,-0.016174316,6.847328,3.3129769999999996,0.8015267,0
0.12036133,0.01574707,0.014831543,6.4198474999999995,4.2061067,-1.0458015,0
0.12335205,0.016357422,0.046813965,7.1755724,3.7099237,-0.45038167,0
0.12158203,0.014770508,0.004760742,7.458015400000001,3.4427480000000004,-1.2137405,0
0.1227417,0.017944336,0.00592041,4.6870227,2.0992367,-4.0305343,0
0.12536621,0.014160156,0.074157715,5.328244000000001,0.9694656999999999,-3.4732822999999997,0
0.12365723,0.013916016000000002,0.055786132999999995,4.442748,0.16793893,-4.2900763,0
0.12365723,0.01184082,0.033447266,1.9236640999999999,2.1755726,-4.4656487,0
0.12347412,0.012512207,0.041259766,-2.4580152,2.7099237,-2.8396947,0
0.12219238,0.016357422,0.00018310549999999998,-1.6717557,3.0152671000000004,-1.8931297999999999,0
0.12329101599999999,0.014709473,0.04815674,-2.2748091,4.603053599999999,-2.1603053,0
0.12438965,0.01574707,0.012634277,-1.8931297999999999,2.2671757,-2.8625952999999997,0
0.12438965,0.016479492,0.03186035,-0.35877863,2.3435113,-2.5954200000000003,0
0.12268066400000001,0.015136719,0.004272461,0.3740458,3.2900763,-1.7557251,0
0.12322998,0.015625,0.045166015999999996,-1.0839695,1.3740458,-3.7175572,0
0.12365723,0.014465332,0.030578612999999998,2.2519082999999998,2.3206108,-3.7328242999999994,0
0.12426758,0.013366699,0.04626465,-0.21374045,1.8091604,-2.4351146,0
0.12414551,0.012512207,0.02947998,-2.2748091,2.2290077,-1.4427481000000002,0
0.12268066400000001,0.015014648,0.020263672,-2.6793892,1.0687023,-2.7404580000000003,0
0.12176514,0.013427733999999998,0.029174805,-3.4732822999999997,3.2519082999999998,-4.053435299999999,0
0.12072754,0.015991211,0.034057617000000005,-2.6412212999999998,2.961832,-1.8091604,0
0.12414551,0.013061523,0.04156494,-3.59542,2.70229,-0.96183205,0
0.12322998,0.014099121000000001,0.019592285,-4.366412,1.1603054,-1.259542,0
0.12207031,0.01361084,0.03778076,-5.145038,2.3282442000000003,-3.4427480000000004,0
0.12133789,0.013916016000000002,0.029418945,-5.183206,3.2595419999999997,-3.648855,0
0.12268066400000001,0.012451172,0.041870117000000005,-5.068702,2.129771,-2.687023,0
0.1227417,0.012329102,0.02758789,-6.038168,2.7328243,-2.8244274,0
0.12078857400000001,0.0119018555,0.016418457,-6.2442746,3.0152671000000004,-5.0229006,0
0.12585449,0.013549805,0.013244628999999999,-6.664122,4.7175574000000005,-4.1374044,0
0.12573242,0.011230469,0.022827148,-7.625953999999999,4.633588,-5.0305343,0
0.12689209,0.012207031,0.044921875,-7.10687,4.366412,-4.984732599999999,0
0.12646484,0.010498047,0.014038086000000002,-6.4274807,5.2824425999999995,-5.656488400000001,0
0.1239624,0.012268066000000001,0.01940918,-8.664123,4.4580154,-6.10687,0
0.12335205,0.014465332,0.04736328,-6.2671757,4.10687,-6.4198474999999995,0
0.12182617,0.011230469,0.035461426000000004,-7.519083999999999,5.8625956,-6.4198474999999995,0
0.123535156,0.013366699,0.012573242,-9.022901,5.816794,-2.4045799999999997,0
0.123046875,0.0146484375,0.028442382999999998,-7.6335880000000005,4.5343513,-1.3053435,0
0.12133789,0.012878418,0.046691895,-2.129771,7.2290077,-1.1984733,0
0.119628906,0.0115356445,0.03161621,-3.7557251000000003,6.740458,0.5954198,0
0.12377930000000001,0.015319824,0.023376465,-2.9389312000000003,8.320611,-0.43511450000000007,0
0.12243652,0.014526367,0.020080566,-0.24427481,7.114503999999999,1.9160305,0
0.12609863,0.013549805,0.058532715,3.6335877999999995,7.923664,2.0610688,0
0.12347412,0.010253906,0.02960205,4.9007635,7.160305499999999,3.3664122000000005,0
0.12921143,0.010009766,0.036376953,-0.5954198,5.8396945,2.6641220000000003,0
0.12585449,0.010803223,0.028991700000000002,-5.6488547,3.6259542000000002,0.83206105,0
0.12530518,0.009887695,0.007873535,-8.0,2.8091602000000004,-2.8931298,0
0.12701416,0.011413574,0.02520752,-9.091603,-0.22137405,-1.8015267,0
0.12420654,0.008422852,0.03741455,-10.152672,-1.7175573,-3.091603,0
0.125,0.008361816,0.02923584,-12.549619,-1.1603054,-2.8091602000000004,0
0.12628174,0.0064697266000000005,0.006652831999999999,-17.08397,-1.6335878000000001,-3.1603053,0
0.12677002,0.0063476562,0.008850098,-17.541985,-3.2748091,-0.71755725,0
0.12994385,0.0032958984000000004,0.021728516,-18.519083,-3.4580152,1.0610687,0
0.12664795,0.005493164,0.031982422,-19.57252,-3.6183207000000004,3.221374,0
0.1274414,0.0020141601999999997,0.009460449000000001,-22.91603,-4.5648856,3.2519082999999998,0
0.12200928,0.0020751953,0.012451172,-24.251910000000002,-6.4656487,3.2900763,0
0.12310791,0.0020751953,0.019470215,-26.709923,-5.5725193,4.7099237,0
0.11773682,0.0056152343999999995,0.024597168,-30.045801,-6.885496000000001,4.4274807,0
0.12243652,0.0032348633000000003,0.003540039,-31.74809,-7.290076299999999,4.8625956,0
0.119018555,0.0036010741999999997,0.02166748,-31.206106,-6.2824425999999995,6.1221375,0
0.12310791,0.005126953,0.018615723,-31.030534999999997,-6.9465647,7.038167999999999,0
0.12432861,0.0063476562,0.06451416,-32.503820000000005,-5.89313,7.9389315,0
0.122924805,0.006958008000000001,0.041015625,-35.290077000000004,-5.625954,7.0610685,0
0.12005615,0.005981445300000001,0.032409667999999996,-36.419846,-5.6870227,4.3587785000000006,0
0.11895752,0.006652831999999999,0.005737304699999999,-38.08397,-7.5114503,3.2671757,0
0.11773682,0.007751465,0.059326172,-39.23664,-7.1450380000000004,0.45801526,0
0.11627197,0.008178711,-0.009094238000000001,-39.137405,-5.59542,0.49618322,0
0.11810303,0.0075683593999999995,0.014465332,-38.625954,-4.587786,0.5954198,0
0.12030029,0.006652831999999999,0.02508545,-39.396946,-3.8854961,-2.2366412,0
0.12213135,0.008178711,0.03363037,-40.404579999999996,-2.389313,-4.2824425999999995,0
0.12182617,0.009399414,0.032043457000000004,-39.618320000000004,-1.4885496,-3.8091602,0
0.12005615,0.008300781,0.01550293,-32.51145,2.7328243,-5.4656487,0
0.12200928,0.010375977,0.042114257999999995,-26.091601999999998,5.7938933,-4.671755999999999,0
0.12457275400000001,0.010986328,0.010192871,-14.664123000000002,10.80916,-3.1984732000000005,0
0.13684082,0.012145996000000001,0.028381347999999997,-5.2671757,13.587786999999999,-0.33587787,0
0.13244629,0.00982666,-0.0041503906,0.77099234,11.870229,4.7251905999999995,0
0.13287354,0.012573242,0.030578612999999998,-0.5038168,10.465649,0.48854962,0
0.13323975,0.01361084,0.030151367000000002,0.78625953,9.702291,1.2519083999999998,0
0.13311768,0.012634277,0.032409667999999996,2.1145039,8.977099,-6.335878,0
0.12506104,0.0134887695,0.035827637,-1.0305344,3.6641220000000003,-11.206107000000001,0
0.11968994,0.016906738,0.020812988,0.23664123,2.9007633,-14.458015,0
0.12054443,0.020324707,0.03967285,9.511451,1.0992366000000002,-14.793892999999999,0
0.12194824,0.016784668,0.032470703,15.244275,-4.7938933,-17.595419,0
0.12200928,0.016784668,0.019958496000000003,18.419847,-9.969465,-19.732824,0
0.11883545,0.013671875,0.03881836,17.885496,-15.229007999999999,-22.450382,0
0.12243652,0.013305663999999998,0.032165527,10.732824,-18.526718,-26.847328000000005,0
0.12786865,0.014953613000000001,0.02368164,0.4427481,-22.137404999999998,-28.526718,0
0.1282959,0.0154418945,0.036987305,-9.106871,-23.396946,-27.351145000000002,0
0.12451172,0.017456055,0.03741455,-17.068703,-24.396946,-25.961832,0
0.12219238,0.018188476999999998,0.052734375,-23.541985,-20.038168,-26.152672,0
0.1182251,0.021911621000000003,0.04095459,-19.900763,-13.175572,-19.076335999999998,0
0.11602783,0.022766112999999998,0.034851073999999996,-7.885496000000001,-4.7251905999999995,-13.854961,0
0.11315918,0.02368164,0.035888672,7.2519083,3.1908397999999996,-7.3511453,0
0.117126465,0.023803711,0.031555176000000004,23.358778,9.251908,0.10687023,0
0.12023926,0.024536132999999998,0.03918457,34.0,12.267176,4.8625956,0
0.12097168,0.018859863,0.016662598,34.992367,13.412213000000001,4.908396700000001,0
0.12054443,0.01727295,0.034240723,26.954199,11.648855000000001,4.038168,0
0.12249756,0.015380858999999998,0.026245117000000002,12.679389,11.435115,-0.41221374,0
0.11883545,0.018554688,0.016296387,1.6564884999999998,9.877863,-1.7938931,0
0.11791992,0.022460938,0.007690429699999999,3.0305343,10.7786255,-2.534351,0
0.11840819999999999,0.017944336,0.028137207,9.396947,13.427481,0.07633588,0
0.12109375,0.018493652,0.028625487999999998,12.580152499999999,15.320610999999998,1.2519083999999998,0
0.11846924,0.017944336,0.018676758,12.648855000000001,16.06107,3.8549618999999997,0
0.12377930000000001,0.018493652,0.0004882813,10.229008,18.167938,6.603053599999999,0
0.12408447,0.019165039,0.053955078,8.717557000000001,16.977098,8.687023,0
0.12451172,0.018066406,0.028564452999999997,7.0458016,15.938931,8.160305000000001,0
0.12750244,0.018005371000000003,0.0065307617,2.3053436,12.641221,10.366412,0
0.12689209,0.018310547,0.0099487305,-3.4961832000000004,9.374044999999999,7.1984735,0
0.13085938,0.018005371000000003,0.018981934,-10.404580000000001,5.5725193,5.6106873,0
0.12835693,0.01727295,-0.0010986328,-20.954199,1.6946564999999998,3.4122138,0
0.14556885,0.020874023000000002,0.02178955,-30.374046000000003,2.816794,1.1145038999999999,0
0.1449585,0.014831543,0.020263672,-39.274809999999995,2.1374047000000003,5.7557254,0
0.14044189999999998,0.020324707,0.010437011999999999,-44.137405,-0.71755725,1.6870228999999999,0
0.12268066400000001,0.020202637,0.013671875,-34.496179999999995,-2.7557251,-2.519084,0
0.11212158,0.021362305,0.018554688,-17.740458,-1.0839695,-5.0839696,0
0.1149292,0.020751953,0.014282227,0.96183205,-3.1755726,-3.038168,0
0.11206055,0.021362305,0.017944336,15.603053,-6.1603055,-1.3282443000000002,0
0.10675049,0.015197753999999999,0.01727295,19.137404999999998,-9.083969,0.053435113,0
0.12011719,0.016906738,0.021484375,4.068702,-10.564885,-3.9007633000000004,0
0.12280273400000001,0.014587402,0.012939453,-8.770992,-16.694656,-12.038167999999999,0
0.13348389,0.018615723,0.06567383,-9.679389,-20.251910000000002,-23.12977,0
0.13531494,0.019104003999999997,0.006225586,-2.183206,-21.167938,-33.114502,0
0.14068604,0.021606445,0.016357422,13.648855,-18.229008,-35.0,0
0.13122559,0.01586914,0.037719727,27.603053999999997,-17.022902,-37.328243,0
0.11230469,0.0134887695,0.032958984,30.76336,-16.290077,-38.91603,0
0.10296631,0.014709473,0.033081055,32.679390000000005,-12.206107000000001,-38.748093,0
0.10266113,0.015930176,0.04486084,40.0229,-5.7175574000000005,-31.229008,0
0.10253906,0.016174316,0.037475586,49.725190000000005,-0.64122134,-20.091601999999998,0
0.10028076,0.015991211,0.033935547,51.641220000000004,4.1297708,-7.2748094,0
0.09271239999999999,0.018676758,0.055908203,57.908398,12.709924,5.2977099999999995,0
0.09283447,0.021484375,0.04815674,71.57252,18.435114000000002,13.045800999999999,0
0.11730957,0.02911377,-0.01373291,83.87786,26.030535,27.229008,0
0.1373291,0.025024414,0.032592773,95.67175,26.839695000000003,39.030533,0
0.15747070000000002,0.03375244,0.05041504,111.73283,25.183207,44.862595,0
0.14318848,0.032714844,0.024780273,140.50381000000002,19.076335999999998,38.839695,0
0.15118408,0.03491211,0.03491211,163.87787,21.801527,15.687023000000002,0
0.17614746,0.02154541,0.030151367000000002,166.03053,16.389313,3.4503817999999997,0
0.15759277,0.015808105,0.043762207000000004,134.55725,5.4961834000000005,-14.732823999999999,0
0.12719727,0.014221191000000001,0.032348632999999995,88.12214,-8.931297,-35.282444,0
0.10601807,0.018798828,0.01776123,64.770996,-8.961832000000001,-54.190838,0
0.11059569999999999,0.02319336,0.002319336,57.748093000000004,-5.0,-56.083969999999994,0
0.11285400400000001,0.02758789,0.039611816,73.59541999999999,2.7251909,-54.053436,0
0.11486816400000001,0.022583007999999998,0.053588867000000005,76.89313,-5.984732599999999,-40.374046,0
0.117248535,0.02130127,0.027832031,84.0458,-5.1984735,-29.274809,0
0.11785889,0.012634277,0.026428222999999997,73.33588,2.1374047000000003,-25.160304999999997,0
0.12200928,0.008483886999999999,0.008972168,45.954197,0.71755725,-25.48855,0
0.11975098,0.013000488000000001,0.016418457,26.42748,-7.3816795,-36.099236,0
0.115356445,0.008361816,0.028381347999999997,10.068703,-13.19084,-40.412212,0
0.11230469,0.009521484,0.058044434000000006,-8.610686999999999,-6.80916,-36.694656,0
0.11395264,0.010131836,0.028808594,-9.389313000000001,-1.7175573,-31.038168,0
0.11462402,0.012268066000000001,0.034301757999999995,-9.717557000000001,0.96183205,-21.030535,0
0.11047363,0.008422852,0.026123047000000003,-20.091601999999998,3.5801528,-11.19084,0
0.107910156,0.006652831999999999,0.0095825195,-41.82443,6.89313,-0.6946565,0
0.11431885,0.015319824,0.023986816,-57.47328,9.206107000000001,10.038167999999999,0
0.12384033,0.018798828,0.0075683593999999995,-50.89313,13.122137,20.671754999999997,0
0.13232422,0.018127441,0.047546387,-34.06107,13.916031,29.099237,0
0.14013672,0.012939453,0.013305663999999998,-23.961832,14.870229,31.885496000000003,0
0.16125488,0.013122558999999999,0.025634766,-20.389313,15.335876999999998,31.404581,0
0.16436768,0.008056641,0.014160156,-33.809162,12.625955000000001,28.984734000000003,0
0.16204834,0.00982666,0.008605957,-50.526720000000005,5.6793895,22.503817,0
0.14636229999999997,0.0040893555,0.016967773000000002,-71.38931,-1.8244275,12.580152499999999,0
0.12219238,0.005493164,0.002380371,-102.43511,-13.7786255,5.7480917,0
0.10284424,0.012878418,0.016357422,-114.54198500000001,-23.091601999999998,0.46564886,0
0.08508301,0.017822266,0.0006103516000000001,-102.87786,-31.229008,-5.557252,0
0.09606933599999999,0.016784668,0.0138549805,-81.61069,-30.70229,-9.267176,0
0.1171875,0.016784668,0.0146484375,-59.664124,-25.587785999999998,-3.0610687999999997,0
0.14117432,0.01159668,0.014160156,-42.954197,-26.099237,12.351144999999999,0
0.13885498,0.004272461,0.02178955,-54.48855,-25.908398000000002,13.152672,0
0.13494873,0.006958008000000001,0.028198242000000002,-84.62595,-21.458015,10.511451,0
0.11950683599999999,0.015808105,0.02331543,-89.9542,-19.068703,8.961832000000001,0
0.10510254,0.017822266,0.009399414,-69.07633,-16.442749,3.3664122000000005,0
0.101501465,0.017211914,0.012145996000000001,-38.419846,-12.129771,0.5038168,0
0.09503174,0.018737793,0.0034179688000000002,-7.6946563999999995,-4.0839696000000005,2.6412212999999998,0
0.09576416,0.015258788999999998,0.0072021483999999995,11.2213745,5.854962,9.770992,0
0.09881592,0.010559082,0.001953125,17.290077,16.007633,16.717558,0
0.10430908,0.008972168,0.014160156,12.038167999999999,21.702289999999998,24.328245000000003,0
0.109375,0.011047363000000001,-0.0015258789000000001,5.8015265,24.954199,28.992366999999998,0
0.109313965,0.009460449000000001,-0.015319824,1.8625953999999998,28.595419,34.48855,0
0.11645508,0.013916016000000002,0.004272461,0.52671754,31.931296999999997,36.55725,0
0.13562012,0.011413574,0.0075683593999999995,0.061068702,32.091602,34.458015,0
0.13702393,0.012817383,0.029174805,-3.2748091,28.534351,27.801527,0
0.13677979,0.013671875,0.013793945,-7.458015400000001,27.25191,17.351145000000002,0
0.13830566,0.013549805,0.022338867000000002,-9.450381,24.839695000000003,4.9770994,0
0.1605835,0.013183594,0.044128417999999996,-12.755725,24.122137,-8.19084,0
0.17028809,0.014770508,0.018798828,-10.931297,21.763360000000002,-10.2595415,0
0.17218018,0.017150878999999997,0.0075683593999999995,-0.7480916,13.755725,-8.068703,0
0.13854979999999997,0.014831543,0.02166748,13.458015,-3.129771,-6.931298,0
0.08929443,0.0146484375,0.025756836,27.74809,-18.908398000000002,-30.343512,0
0.10003662,0.01171875,0.050476074,36.82443,-23.0,-39.267174,0
0.1260376,0.010681152,0.030700684,44.190838,-26.007633,-44.85496,0
0.14056396,0.005737304699999999,0.022644043,33.251907,-28.778625,-32.48855,0
0.1437378,0.0072021483999999995,0.043518065999999994,12.152672,-38.290077000000004,-26.29771,0
0.12841797,0.005432129,0.06414795,-30.526718,-38.129771999999996,-31.885496000000003,0
0.12017822,0.00970459,0.041931152,-53.320609999999995,-32.305344,-31.641221999999996,0
0.11090088,0.014831543,0.026855469,-45.343509999999995,-30.335878000000005,-46.648853,0
0.109191895,0.0134887695,0.037963867000000005,-25.473282,-37.87786,-52.938930000000006,0
0.10821533,0.010803223,-0.005004883,-5.5419846,-44.10687,-53.62595400000001,0
0.10961914,0.0107421875,0.016845703,-1.3664121999999999,-39.0,-54.28244399999999,0
0.11627197,0.006713866999999999,0.0119018555,-2.091603,-32.297709999999995,-48.396946,0
0.11688232400000001,0.004028320300000001,0.006958008000000001,-17.824427,-32.358779999999996,-42.770992,0
0.10784912,0.004272461,0.017333984,-33.06107,-27.557251,-33.183205,0
0.11053467,0.008300781,0.033081055,-48.190838,-17.465649,-14.671756,0
0.12377930000000001,0.011962891000000002,0.04864502,-49.251907,-6.9923663000000005,9.931297,0
0.1338501,0.012939453,0.02319336,-44.595420000000004,1.1374046,32.969467,0
0.13366699,0.0099487305,0.047973632999999995,-50.648853,8.068703,46.992367,0
0.15765381,0.008422852,0.035949707000000004,-69.30534,26.778625,60.48855,0
0.15783691,0.011291503999999999,0.024353027000000003,-88.381676,36.08397,73.862595,0
0.15344238,0.019592285,0.028747559,-89.183205,38.0229,76.0229,0
0.12963867,0.016784668,0.01727295,-86.27481,33.702290000000005,70.0458,0
0.10229492,0.022094727,0.0115356445,-72.80153,29.908398,56.85496,0
0.09240723,0.024169922000000003,0.0037231445,-50.305344,28.167938,40.381679999999996,0
0.10632324,0.026184082,0.041015625,-19.770992,25.557251,30.80916,0
0.12469482400000001,0.020751953,0.015136719,3.0,20.763360000000002,27.435114000000002,0
0.13934326,0.012817383,0.044006348,-6.2824425999999995,14.061069,23.900763,0
0.14215088,0.018371582,0.027282715,-23.167938,10.954199000000001,22.419847,0
0.122924805,0.01751709,0.0052490233999999995,-29.717558,8.7786255,17.450382,0
0.11358642599999999,0.019836426,0.011230469,-24.229008,7.816794,10.404580000000001,0
0.11047363,0.018432617,-0.0006103516000000001,-16.770992,6.2519083,4.8244276,0
0.10583496,0.021240234,0.010314941,-4.5725193,5.5648856,4.8015265,0
0.10424805,0.021911621000000003,-0.0014648438,14.709923999999999,5.1374044,5.0,0
0.11328125,0.015625,0.0014038085999999999,29.458015000000003,5.961832,5.0,0
0.11517334,0.0146484375,0.033203125,28.740458,8.923664,5.396946400000001,0
0.11871338,0.012207031,-0.010375977,26.175573,6.053435299999999,3.4580152,0
0.11755371,0.011413574,-0.0099487305,22.175573,4.038168,-0.122137405,0
0.12731934,0.012390136999999999,0.015014648,18.648854999999998,-0.17557251,-5.1603055,0
0.14172363,0.013366699,0.01171875,17.458015,-1.7786259999999998,-10.206107000000001,0
0.14282227,0.00982666,0.02355957,15.167939000000002,-5.4274807,-16.122137,0
0.14154053,0.008972168,0.020812988,2.4580152,-10.847328,-26.48855,0
0.15527344,0.0154418945,0.005004883,-0.14503817,-9.679389,-31.946565999999997,0
0.16027832,0.01574707,0.009277344,14.740458499999999,-11.442748,-30.465649,0
0.15197754,0.016845703,0.005004883,30.137404999999998,-22.977098,-32.809162,0
0.1362915,0.007385254,-0.0014648438,28.396946000000003,-40.809162,-37.89313,0
0.10229492,0.010009766,0.0017700195,24.648854999999998,-49.603054,-55.55725,0
0.11975098,0.01574707,0.022277832,24.320610000000002,-50.435116,-69.57252,0
0.13653564,0.016845703,0.033447266,45.564884,-48.519085,-65.824425,0
0.14984131,0.013671875,0.018981934,54.755726,-53.28244399999999,-61.78626,0
0.13415527,0.00982666,0.013183594,41.358779999999996,-59.916030000000006,-53.679390000000005,0
0.11566162,0.006225586,0.008361816,25.091601999999998,-53.46565,-53.51145,0
0.11102295,0.0037841796999999997,0.006713866999999999,0.9160305000000001,-44.328243,-54.67175699999999,0
0.10418701,-0.00030517580000000003,0.009338379,-28.717558,-39.770992,-55.053436,0
0.10223389,0.014953613000000001,0.006591797,-28.213741,-40.55725,-53.954197,0
0.09332275400000001,0.00982666,0.006286621,-7.4885497,-36.664124,-47.076336,0
0.09887695,0.010192871,0.02520752,6.70229,-26.725191,-37.251907,0
0.10595703,0.00793457,0.047302246,11.633588,-15.801526999999998,-26.160304999999997,0
0.10687256,0.0036621094,0.058532715,5.4961834000000005,-9.969465,-13.839695,0
0.10418701,0.0061035156000000005,0.046875,-1.9465648999999998,-0.58778626,-0.6946565,0
0.11212158,0.0052490233999999995,0.025939941,-14.038167999999999,12.297709,17.564885999999998,0
0.12280273400000001,0.008300781,0.044799805,-23.442749,25.885496,44.984734,0
0.13104248,0.012817383,0.028442382999999998,-19.91603,35.778625,66.42748,0
0.14562988,0.008911133,0.012329102,-17.145039,47.969467,83.63359,0
0.17352295,-0.0012207030999999999,0.024047852,-50.778625,62.35878,95.78626,0
0.1685791,0.0051879883,0.045898438,-96.74045600000001,68.03817,105.12213999999999,0
0.1586914,0.016235351999999998,0.07800293,-121.71756,60.412212,98.61069,0
0.11651611,0.016113281,0.004638672,-127.96947,42.900764,83.44275,0
0.10455322,0.026611327999999997,0.038208007999999995,-103.862595,38.030533,63.450382,0
0.11877441400000001,0.030639648,0.008850098,-65.44275,35.312977000000004,41.198475,0
0.12384033,0.023254395,0.018371582,-34.030533,23.351145000000002,32.82443,0
0.13256836,0.019042969,0.010131836,-28.923664000000002,13.641221,17.274809,0
0.13061523,0.016601562,0.025756836,-30.633587,11.969465,17.0,0
0.11804199,0.014343261999999999,0.009033203,-42.580154,10.946565,16.412214000000002,0
0.1071167,0.0178833,0.004333496,-53.85496,10.114504,17.190839999999998,0
0.10369873,0.020202637,-0.014282227,-48.755726,10.076336,19.610687,0
0.10272217,0.023620605,0.026977539,-38.419846,11.068703,19.198473,0
0.10925293,0.02154541,0.03515625,-30.022902000000002,13.961832000000001,18.793894,0
0.11651611,0.01953125,0.012756348,-25.0,12.167939,13.496182999999998,0
0.12005615,0.0178833,0.05291748,-26.824427000000004,10.656488000000001,7.70229,0
0.122924805,0.018127441,0.036193848,-26.717558,13.152672,0.90839696,0
0.12817383,0.01763916,0.028381347999999997,-19.87023,12.534351,-6.59542,0
0.13854979999999997,0.017456055,0.0033569335999999996,-11.595419999999999,11.969465,-9.770992,0
0.14276123,0.016967773000000002,0.024719237999999998,0.66412216,9.908397,-13.59542,0
0.15734863,0.015563965,-0.008117675999999999,4.1297708,12.572519,-17.022902,0
0.16693115,0.015197753999999999,0.04248047,8.687023,7.4885497,-19.557251,0
0.1484375,0.014892578,0.014770508,13.198473000000002,-2.1526718,-22.564885999999998,0
0.14794922,0.016723633,0.021606445,24.259542,-21.053434,-30.404581,0
0.11450195,0.018554688,0.0063476562,37.282444,-37.10687,-42.343509999999995,0
0.12335205,0.01776123,0.015991211,49.12214,-38.603054,-54.55725,0
0.13671875,0.014709473,0.026977539,58.389313,-40.198475,-53.83206,0
0.1430664,0.011413574,0.023803711,56.984733999999996,-46.12214,-54.67175699999999,0
0.13531494,0.005493164,0.05908203,28.923664000000002,-51.274809999999995,-53.679390000000005,0
0.11938476599999999,0.010131836,0.057373047,-11.335877,-41.89313,-59.450382,0
0.11022949,0.012939453,0.039978027,-25.343512,-32.87786,-64.938934,0
0.10723877,0.021362305,0.030517577999999997,-11.725191,-27.656488,-63.725190000000005,0
0.09838867,0.022583007999999998,0.02911377,18.832062,-29.007633000000002,-62.114502,0
0.091918945,0.01727295,0.031066895,43.412212,-28.900763,-58.076336,0
0.09893799,0.0107421875,0.036193848,43.44275,-23.961832,-54.961833999999996,0
0.10522461,0.014709473,0.024353027000000003,36.007633,-15.625955,-46.358779999999996,0
0.11364746,0.010131836,0.030517577999999997,31.57252,-11.320611,-32.244274,0
0.11871338,0.013916016000000002,0.016479492,17.06107,-9.0,-14.839695,0
0.12188721,0.0068969727,0.025756836,-7.7175574000000005,0.27480915,7.3511453,0
0.13995361,0.009765625,0.010620117,-34.396946,11.549619,32.206109999999995,0
0.13165283,0.011047363000000001,0.02368164,-42.78626,13.709923999999999,49.53435,0
0.15563965,0.015808105,0.0138549805,-45.526720000000005,25.496183,60.648853,0
0.16412354,0.010620117,0.028381347999999997,-54.28244399999999,40.91603,75.854965,0
0.15515137,0.016601562,0.024108887000000002,-56.900764,47.755726,78.75572,0
0.13299560000000002,0.016174316,0.014038086000000002,-49.519085,37.51145,72.137405,0
0.09265137,0.021972656,-0.009155273,-36.114502,28.877863,50.908398,0
0.09692383,0.01940918,-0.010620117,-14.977098999999999,27.732824,35.44275,0
0.11602783,0.019165039,0.041137695,5.0076336999999995,25.167938,26.137404999999998,0
0.12451172,0.013427733999999998,0.009399414,8.870229,16.145039,20.175573,0
0.13616943,0.012939453,0.0126953125,0.19083970000000003,5.4961834000000005,12.404580000000001,0
0.12878418,0.015197753999999999,0.029907227,-1.9312977,6.816794,16.259542,0
0.11596680000000001,0.020141601999999998,0.0061035156000000005,0.20610687,10.511451,20.152672,0
0.11230469,0.01940918,0.03289795,6.3129773,7.9923663000000005,20.519083,0
0.10644531,0.022460938,0.041503906,19.57252,7.778625999999999,24.57252,0
0.10784912,0.023010253999999997,0.0,41.229008,10.335877,20.87023,0
0.11328125,0.019104003999999997,0.051635742000000005,59.007633,10.473283,18.183207,0
0.11889648400000001,0.014099121000000001,-0.005432129,58.87786,8.946565,14.984732999999999,0
0.11987305,0.015319824,0.019042969,53.931297,6.671755999999999,10.007633,0
0.11895752,0.018859863,-0.031982422,43.435116,5.984732599999999,6.931298,0
0.12731934,0.00982666,0.02545166,29.480916999999998,7.10687,-0.52671754,0
0.13793945,0.016479492,0.059448242000000005,28.61832,4.8702292,0.86259544,0
0.1473999,0.0146484375,0.047912598,30.25191,2.8091602000000004,0.41221374,0
0.18084717,0.013793945,0.039733887,23.740458,3.1603053,1.0152671,0
0.16607666,0.014404297,0.0021362305,13.954199,-5.5496182,4.2137402999999996,0
0.15332031,0.017822266,0.021362305,9.564885,-24.717558,-9.78626,0
0.10479736,0.015808105,0.035339355,7.5648856,-45.809162,-34.778625,0
0.11358642599999999,0.018066406,0.07244873,15.267176000000001,-43.06107,-54.099236,0
0.13031006,0.0234375,0.0041503906,29.389313,-40.587788,-63.954197,0
0.13897705,0.017578125,0.030578612999999998,42.328243,-45.419846,-60.427482999999995,0
0.1359253,0.017700195,0.03753662,38.770992,-52.343509999999995,-57.74046,0
0.123168945,0.012084961000000002,0.044128417999999996,21.145039,-41.374046,-70.36641,0
0.11676025400000001,0.014709473,0.04498291,11.870229,-30.183207,-72.40458000000001,0
0.11566162,0.016906738,0.042541504,28.832062,-23.89313,-66.34351,0
0.105651855,0.016113281,0.06817627,51.618320000000004,-28.160304999999997,-69.099236,0
0.09826660000000001,0.012023926,0.026550293,67.21374,-29.877863,-64.19084000000001,0
0.10418701,0.009399414,0.03149414,58.49618,-24.526718,-57.85496,0
0.11175537,0.008300781,0.011108398,48.580154,-20.450382,-54.038166000000004,0
0.11114502,0.0067749023,0.0211792,37.931297,-22.206106,-47.045803,0
0.11169433599999999,0.00592041,0.019714355,28.534351,-17.503817,-34.251907,0
0.11651611,0.004272461,0.020080566,10.587786999999999,-5.221374,-14.114504,0
0.12548828,0.009338379,0.04473877,-10.290076,5.931298,9.603053,0
0.13269043,0.012390136999999999,0.018188476999999998,-19.709923,14.129771,29.541984999999997,0
0.17303467,0.01361084,0.019165039,-26.206106,35.74046,46.0229,0
0.1685791,0.012634277,-0.0029296875,-25.160304999999997,49.664124,67.64121999999999,0
0.14813232,0.01751709,0.028076172000000003,-16.87023,47.038166,66.175575,0
0.11450195,0.0146484375,-0.0056152343999999995,-16.770992,33.801525,50.190838,0
0.08972168,0.017700195,-0.0012817383,2.778626,30.206106,31.42748,0
0.10827637,0.022155762000000002,-0.006958008000000001,34.328243,32.9771,9.763359,0
0.11920166,0.002319336,0.0052490233999999995,48.419846,23.519083,11.679389,0
0.12017822,0.0025024414000000004,0.008544922,27.145039,6.0305343,1.1603054,0
0.12451172,0.0010375977,0.0040893555,-7.4274807,4.7175574000000005,4.343511599999999,0
0.12512207,0.0024414061999999998,-0.0010986328,-46.55725,14.534351000000001,10.564885,0
0.11584473,0.012451172,0.0018310547,-56.85496,19.969465,15.251907999999998,0
0.1116333,0.018615723,0.0037841796999999997,-38.870228000000004,19.328245000000003,17.694656,0
0.10473633,0.018005371000000003,-0.008422852,-6.374046,23.297710000000002,24.854961,0
0.10388183599999999,0.014709473,0.013183594,13.954199,25.06107,22.030535,0
0.10668945,0.007873535,-0.003112793,18.213741,24.587785999999998,18.732824,0
0.11022949,0.010681152,-0.0041503906,21.244274,22.259542,12.633588,0
0.10595703,0.01159668,-0.0065307617,21.587785999999998,21.091601999999998,12.404580000000001,0
0.11230469,0.00982666,0.0006713867,23.076335999999998,20.068703,8.854961,0
0.11706543,0.011230469,-0.0029907227,24.099237,17.87023,10.725191,0
0.12036133,0.011230469,-0.0038452148,23.099237,14.946565,11.480916,0
0.12762451,0.010681152,0.005859375,18.603054,13.274809,10.274809,0
0.15576172,0.013061523,0.00390625,12.21374,23.435114000000002,12.068703,0
0.18334961,0.01550293,0.02154541,11.061069,24.305344,20.671754999999997,0
0.16210938,0.020629883,0.0072021483999999995,27.80916,8.442748,27.778625,0
0.14862060000000002,0.022583007999999998,0.024658202999999997,34.694656,-8.679389,12.717557000000001,0
0.119628906,0.015625,0.0115356445,32.16794,-21.290077,-9.908397,0
0.11193848,0.022888184,0.0017089844000000001,44.374046,-22.51145,-27.099237,0
0.13916016,0.023864746000000003,0.016357422,66.28244000000001,-26.557251,-38.076336,0
0.13690186,0.023498535,0.038146973,69.183205,-38.603054,-43.564884,0
0.12426758,0.021850586,0.07727051,62.923664,-44.251907,-54.458015,0
0.12023926,0.022216797000000003,0.08831787,54.221375,-36.564884,-53.778625,0
0.12145996,0.022094727,0.047973632999999995,49.358779999999996,-25.832062,-63.916030000000006,0
0.12158203,0.02520752,0.05609131,62.389313,-23.167938,-57.954197,0
0.11859131,0.023986816,0.03363037,83.33588,-28.32061,-53.603054,0
0.11425781,0.024902344,0.053833007999999995,96.42748,-29.122137,-47.427483,0
0.11627197,0.018554688,0.06365967,89.57252,-26.541984999999997,-42.717556,0
0.11621094,0.015014648,0.06701660000000001,64.9771,-22.312977,-41.17557,0
0.11364746,0.017456055,0.08294678,29.87023,-16.022902,-44.664124,0
0.10180664,0.022827148,0.046447754,3.6870230000000004,-1.8091604,-43.503820000000005,0
0.09838867,0.03375244,0.01727295,8.916031,14.961832000000001,-33.519085,0
0.097595215,0.03765869,0.04931640599999999,35.099236,29.91603,-26.564885999999998,0
0.09552002,0.03540039,0.040771484,54.335876,43.274809999999995,-13.908397,0
0.10375976599999999,0.037475586,0.023803711,72.08397,58.099236,0.5954198,0
0.11621094,0.035827637,0.052734375,91.183205,68.80153,20.297710000000002,0
0.12463379,0.03253174,0.051940917999999996,95.73283,65.12977,36.618320000000004,0
0.13720703,0.028076172000000003,0.024658202999999997,80.51145,57.778625,39.267174,0
0.14715576,0.016357422,0.023864746000000003,49.038166,45.282444,36.12214,0
0.16156006,0.015136719,0.020507812,0.84732825,30.656488,21.954199,0
0.18432617,0.016296387,0.019042969,-50.587788,20.633587,0.49618322,0
0.18176270000000003,0.011108398,0.03540039,-83.76335999999999,8.076336,-26.465649,0
0.1663208,0.0010986328,0.028991700000000002,-104.75572,-12.381680000000001,-57.648853,0
0.1449585,-0.012268066000000001,0.020446777,-113.938934,-27.51145,-61.480915,0
0.09777832,-0.012390136999999999,0.011779785,-81.47328,-29.25191,-57.648853,0
0.088378906,-0.011779785,0.03942871,-44.595420000000004,-26.687022999999996,-33.17557,0
0.10595703,-0.012817383,0.038146973,-17.709923,-22.93893,-6.2061067,0
0.12756348,-0.017028809,0.04321289,1.6793894,-18.412214000000002,10.091603,0
0.14270020000000003,-0.03137207,0.034301757999999995,5.5801525000000005,-23.213741,12.908397,0
0.12756348,-0.034484863,0.037231445,-14.152672,-21.48855,17.51145,0
0.12011719,-0.020385742,0.04425049,-23.328245000000003,-6.4351144,22.633587,0
0.11450195,-0.005493164,0.011962891000000002,-6.0076336999999995,8.916031,39.51145,0
0.10534668,-0.005065918,0.04852295,17.93893,15.038167999999999,47.374046,0
0.09893799,-0.0056152343999999995,0.04168701,14.198473000000002,17.87023,45.664124,0
0.09625244,-0.0034179688000000002,0.051086426,-3.1526718,27.29771,49.480915,0
0.10369873,0.0048217773,0.043823242000000005,-12.389313000000001,39.274809999999995,49.335876,0
0.11810303,0.0068359375,0.01586914,-16.824427,52.549618,57.46565,0
0.12915039,0.011962891000000002,0.037109375,-18.267176,57.984733999999996,64.60305,0
0.12799072,0.020812988,0.014831543,-1.3664121999999999,63.564884,78.64121999999999,0
0.1352539,0.024291992000000002,-0.011657715,19.633587,69.28244000000001,86.25191,0
0.15374756,0.02178955,0.005737304699999999,35.137405,66.91603,89.39695,0
0.15765381,0.025817871000000003,-6.1035155999999994e-05,32.44275,55.030533,81.35114,0
0.18090820000000002,0.02960205,-0.000793457,23.770992,43.961834,55.67175699999999,0
0.19714355,0.028930664,-0.004638672,25.839695000000003,20.564885999999998,24.183207,0
0.15386963,0.02319336,0.0008544922000000001,14.732823999999999,-17.61832,-17.0,0
0.1381836,0.018127441,-0.02130127,-0.32824427,-57.114502,-61.366413,0
0.12561035,0.02142334,0.017211914,-3.6106870000000004,-68.67939,-100.137405,0
0.14251709,0.018859863,0.025024414,-0.06870229,-75.71755999999999,-115.33588,0
0.15124512,0.017333984,0.008911133,-1.2442749,-86.62595,-118.183205,0
0.14678955,0.015075683999999999,0.022644043,2.9923662999999996,-99.23664000000001,-125.25954399999999,0
0.13531494,0.014953613000000001,0.013122558999999999,-2.8549618999999997,-94.91603,-132.9542,0
0.12426758,0.010620117,0.03717041,-8.946565,-84.21374,-128.85497,0
0.11853027,0.015808105,0.021972656,7.0839696,-75.68701999999999,-123.87023,0
0.111816406,0.014099121000000001,0.036132812,32.14504,-71.87023,-117.43511000000001,0
0.1026001,0.0045776367,0.030517577999999997,45.82443,-65.84733,-101.54961999999999,0
0.105407715,0.0037841796999999997,0.023010253999999997,47.687022999999996,-53.62595400000001,-80.25191,0
0.11486816400000001,0.0009765625,0.034301757999999995,58.28244399999999,-39.83206,-56.81679499999999,0
0.115112305,-0.0032958984000000004,0.027954102,57.801525,-34.335876,-44.931297,0
0.10675049,-0.012390136999999999,0.027709961,40.923664,-24.633587,-27.89313,0
0.10906982400000001,-0.009338379,0.030883789,10.648855000000001,-7.557252,-13.396947,0
0.11706543,-0.00018310549999999998,0.06280517599999999,-12.312977,10.053435,8.625955000000001,0
0.12799072,0.010498047,0.031982422,-7.5496182,24.282442,31.068703000000003,0
0.14324951,0.010681152,0.048706055,9.984733,45.702290000000005,48.984734,0
0.15759277,0.003967285,0.050048828,3.8396947,70.099236,73.01527,0
0.14807129,0.005126953,0.06262207,-18.244274,83.73283,89.16031,0
0.13342285,0.00579834,0.03265381,-38.603054,86.35878000000001,97.96947,0
0.14154053,0.012084961000000002,0.04931640599999999,-42.17557,85.29008,95.25191,0
0.13867188,0.011108398,0.04852295,-37.282444,79.70229,89.770996,0
0.14251709,0.009216309,0.039733887,-28.954199,67.824425,71.96183,0
0.12982178,0.0024414061999999998,0.022277832,-29.435114000000002,52.71755600000001,52.69465600000001,0
0.11657715,0.0006103516000000001,0.050476074,-39.809162,47.206109999999995,39.0229,0
0.111328125,0.0015258789000000001,0.07525635,-56.198475,43.221375,39.091602,0
0.1083374,0.0064697266000000005,0.040649414,-74.70992,44.83206,42.412212,0
0.11389160000000002,0.012756348,0.05224609400000001,-75.0,44.55725,49.992367,0
0.12609863,0.023620605,0.05316162,-51.099236,46.679390000000005,58.15266999999999,0
0.13665771,0.02734375,0.023864746000000003,-14.343511999999999,44.931297,67.07633,0
0.13482666,0.026977539,0.009094238000000001,9.824428,44.297709999999995,67.43511,0
0.12683105,0.028381347999999997,0.013244628999999999,30.465649,44.053436,63.603054,0
0.13275146,0.03253174,0.034118652,54.40458,44.274809999999995,61.007633,0
0.13653564,0.031066895,0.037841797,68.41984599999999,34.48855,52.755726,0
0.13555908,0.02709961,0.0048217773,64.30534,19.801527,37.312977000000004,0
0.16198729999999997,0.028442382999999998,0.006042480500000001,49.419846,11.030535,18.778625,0
0.18115234,0.027832031,-0.010498047,34.412212,-8.076336,0.48854962,0
0.16772461,0.028442382999999998,-0.0029296875,22.900763,-42.15267,-22.854961,0
0.14349365,0.02709961,0.03186035,4.8625956,-75.12214,-60.412212,0
0.14831543,0.03173828,0.039855957000000004,20.10687,-83.48092,-96.778625,0
0.17205810000000002,0.027282715,0.047302246,52.160305,-89.19847,-104.19084000000001,0
0.17407227,0.022583007999999998,0.015075683999999999,68.61069,-99.70992,-116.10687,0
0.1630249,0.013427733999999998,0.03387451,61.480915,-112.83968999999999,-133.0916,0
0.13275146,0.006713866999999999,0.034057617000000005,27.770992,-110.58778000000001,-146.83969,0
0.12408447,0.010375977,0.057800292999999996,-4.6183205,-96.74045600000001,-164.64122,0
0.11840819999999999,0.015075683999999999,0.05230713,-13.251907999999998,-86.12977,-169.23665,0
0.11114502,0.019592285,0.059753417999999996,9.893129,-84.29008,-163.78625,0
0.1116333,0.021484375,0.043884277,38.969467,-81.854965,-145.71756000000002,0
0.11602783,0.018981934,0.047790527,55.114502,-72.16794,-116.19084,0
0.11657715,0.013671875,0.03265381,58.83206,-62.49618,-89.23664000000001,0
0.12628174,0.00793457,0.032226562,38.44275,-50.725190000000005,-62.030533,0
0.13586426,0.009643555,0.039794922,16.51145,-31.93893,-43.55725,0
0.13262939999999998,0.0061035156000000005,0.059387207000000004,-4.2900763,-12.587786999999999,-14.030535,0
0.14465332,0.0036621094,0.053100586,-35.389313,8.732824,7.8549619999999996,0
0.14758301,0.00579834,0.050109863,-66.70992,39.366413,38.14504,0
0.14160156,0.01159668,0.03100586,-56.549618,62.82443000000001,68.71755999999999,0
0.11553955,0.012573242,0.021240234,-16.213741,69.67939,86.221375,0
0.10278319999999999,0.010192871,0.01965332,22.580153,66.221375,85.854965,0
0.10418701,0.0037231445,0.009765625,47.709922999999996,70.38931,85.00764000000001,0
0.12518310000000002,0.0008544922000000001,0.038146973,51.526720000000005,77.48855,81.0,0
0.14282227,0.0018920898,0.039855957000000004,36.656490000000005,73.42748,80.41221999999999,0
0.13647461,0.0013427734,0.026855469,18.198473,72.16794,84.16031,0
0.13446045,0.0063476562,0.012023926,4.1679387000000006,79.175575,88.55725,0
0.11505127,0.008666992,0.010192871,-4.9007635,82.23664000000001,95.63359,0
0.10058594,0.016723633,-0.0010986328,-3.4198472,79.778625,104.76335999999999,0
0.10571289,0.019592285,0.0012817383,22.38168,78.229004,109.96183,0
0.11389160000000002,0.026367188,-0.007385254,52.55725,77.778625,114.38931000000001,0
0.13159179999999998,0.014892578,0.005676269499999999,66.938934,73.71755999999999,114.76336,0
0.14154053,0.016601562,-0.019897461,64.48855,68.0,103.66412,0
0.15222168,0.016845703,-0.008056641,55.48855,61.091602,90.221375,0
0.14837646,0.023803711,-0.022583007999999998,41.458015,45.732826,74.53435,0
0.14849854,0.025878906,-0.030395507999999998,28.862595000000002,25.885496,46.030533,0
0.15234375,0.026062012000000002,-0.005737304699999999,15.038167999999999,10.374044999999999,14.541985,0
0.19110107,0.028625487999999998,-0.008850098,18.099237,-8.564885,-20.08397,0
0.18200684,0.026428222999999997,-0.0045776367,27.603053999999997,-38.14504,-51.541985,0
0.17230225,0.025817871000000003,0.034729004,19.473282,-74.73283,-78.01527,0
0.14141846,0.024658202999999997,0.06573486,15.740458499999999,-99.60305,-104.31298000000001,0
0.16223145,0.026489257999999998,0.0435791,31.885496000000003,-102.0458,-128.94656,0
0.16986084,0.020874023000000002,0.06976318,51.755726,-108.50381499999999,-123.30533999999999,0
0.16467285,0.020263672,0.08154297,58.572517000000005,-118.19847,-128.0687,0
0.14831543,0.011169433999999999,0.055847167999999996,31.450382,-127.0229,-131.44275,0
0.13586426,0.008605957,0.061523438,-13.847328,-111.84733,-141.54199,0
0.13195801,0.0126953125,0.08288574,-40.17557,-100.67939,-145.22137,0
0.12512207,0.02142334,0.076171875,-36.320609999999995,-93.23664000000001,-145.66412,0
0.11743164,0.023864746000000003,0.076660156,-6.8549619999999996,-88.67175,-143.59541000000002,0
0.11761474599999999,0.0234375,0.04815674,27.816793,-78.66412,-126.862595,0
0.11730957,0.018981934,0.06542969,51.9771,-67.40458000000001,-112.07633,0
0.11291504,0.010498047,0.0703125,51.656490000000005,-58.343509999999995,-96.24428,0
0.11328125,0.007629394499999999,0.11450195,41.473279999999995,-46.656490000000005,-79.68701999999999,0
0.11297607400000001,0.005065918,0.05895996,22.053434,-24.282442,-59.55725,0
0.117004395,0.0072021483999999995,0.08093262,-3.3358779999999997,-3.3053436,-34.656490000000005,0
0.11151123,0.010498047,0.05645752,-22.076335999999998,15.19084,1.9160305,0
0.11956787,0.014343261999999999,0.05596924,-33.687022999999996,41.587788,41.030533,0
0.13250732,0.012329102,0.047912598,-36.931297,74.01527,88.83969,0
0.13989258,0.016845703,0.01763916,-28.465649,97.20611,131.96184,0
0.12194824,0.014770508,0.023498535,-12.984733,101.78626,149.3435,0
0.12109375,0.0068359375,0.025878906,1.038168,108.33588,155.74046,0
0.13397217,0.009216309,0.027404785,12.374044999999999,111.778625,158.73282,0
0.14630127,0.008422852,0.044555664,17.282442,103.43511,151.49618999999998,0
0.15649414,0.009277344,0.042297363,4.3816795,92.29771,131.1374,0
0.1595459,0.014709473,0.023498535,-12.229008,87.8855,114.73283,0
0.15386963,0.016906738,0.022583007999999998,-8.045800999999999,82.62595,103.69466,0
0.13513184,0.021057128999999997,0.02545166,-5.3053436,75.9313,97.854965,0
0.12823486,0.027954102,-0.0045776367,7.3206105,64.94655999999999,93.63359,0
0.12609863,0.026245117000000002,0.017456055,26.259542,56.48855,90.41984599999999,0
0.13311768,0.020385742,-0.0006103516000000001,34.549618,51.007633,83.63359,0
0.12854004,0.017028809,-0.020996094,32.885498,33.717556,70.854965,0
0.13500977,0.015625,0.0026855469,15.564885,18.717558,46.381679999999996,0
0.13671875,0.01739502,0.026855469,-5.152672,12.564885,24.610687,0
0.13989258,0.018493652,-0.009216309,-10.832061,5.015267400000001,-0.5801527,0
0.13323975,0.018432617,-0.008666992,-9.534351,-7.152672,-25.297710000000002,0
0.16705322,0.027770996000000003,0.022521972999999997,6.328244000000001,-14.167939000000002,-39.93893,0
0.17047119,0.026306152000000003,0.0075683593999999995,32.25954,-28.61832,-37.396946,0
0.1671753,0.032165527,0.018676758,70.12977,-55.46565,-37.030533,0
0.13098145,0.01776123,0.032714844,76.9542,-84.29771,-48.335876,0
0.120910645,0.012268066000000001,-0.006164551,51.55725,-94.24428,-67.47328,0
0.14007568,0.016174316,0.049682617000000005,28.42748,-93.35114,-84.16794,0
0.15814209,0.019897461,0.023010253999999997,17.969465,-99.92367,-91.32061,0
0.17272949,0.015625,0.06408691400000001,9.022901,-110.862595,-110.01527,0
0.15429688,0.0075683593999999995,0.051635742000000005,-22.648854999999998,-112.48092,-133.54199,0
0.13433838,0.010253906,0.03149414,-44.53435,-98.33588,-165.21375,0
0.13598633,0.013061523,0.024780273,-38.801525,-82.16794,-180.21375,0
0.13012695,0.017333984,0.03173828,-15.717557000000001,-76.221375,-185.69466,0
0.12084961,0.018432617,0.04522705,18.099237,-72.26717,-180.83969,0
0.12176514,0.014343261999999999,0.038208007999999995,49.595420000000004,-62.916030000000006,-159.36641,0
0.1149292,0.01159668,0.04083252,62.62595400000001,-47.396946,-138.80916000000002,0
0.11895752,0.005676269499999999,0.027526855,61.62595400000001,-35.770992,-114.53435,0
0.121154785,0.0038452148,0.024047852,58.870228000000004,-24.847328,-85.64121999999999,0
0.1171875,0.0013427734,0.020690918,41.374046,-10.068703,-52.885498,0
0.10681152,0.0021362305,0.034301757999999995,11.961832000000001,6.5648856,-15.076335999999998,0
0.105407715,0.0028686523,0.024536132999999998,-20.328245000000003,32.87786,20.458015,0
0.121154785,0.0049438477,0.021728516,-43.862595,63.083969999999994,69.64886,0
0.13433838,0.011413574,0.01739502,-44.114502,87.71755999999999,113.908394,0
0.125,0.009277344,0.04559326,-36.908398,97.78626,141.0,0
0.122924805,0.011108398,0.02331543,-26.29771,100.67939,152.09923999999998,0
0.13220215,0.005859375,0.055114746,-11.961832000000001,101.80153,154.96184,0
0.14477539,0.0032348633000000003,0.012023926,3.8778627,92.908394,149.22137,0
0.15118408,0.00592041,0.04449463,6.366412,80.42748,128.1374,0
0.15051270000000003,0.004333496,0.030090332,-13.450381,74.099236,111.74045600000001,0
0.14941406,0.0115356445,0.044189453,-27.389313,74.12214,98.9771,0
0.13861084,0.012451172,0.021118164,-37.435116,71.0687,93.0,0
0.1260376,0.022155762000000002,0.030883789,-31.709923,59.62595400000001,91.03053,0
0.12139892599999999,0.027404785,0.036376953,-6.4198474999999995,53.64122,92.778625,0
0.12585449,0.024902344,0.036376953,24.137404999999998,48.679390000000005,87.16031,0
0.12963867,0.020385742,-0.0029296875,35.549618,38.48855,80.29008,0
0.12750244,0.016052246000000003,0.002746582,36.870228000000004,27.541984999999997,65.37405,0
0.1303711,0.01586914,0.005554199,23.297710000000002,22.137404999999998,50.89313,0
0.13702393,0.016174316,0.032165527,4.2061067,15.709923999999999,35.618320000000004,0
0.13977051,0.0211792,0.0013427734,-11.511451,3.3893129999999996,16.12977,0
0.13446045,0.022338867000000002,0.032348632999999995,-26.076335999999998,-9.160305000000001,-12.297709,0
0.168396,0.024963378999999997,0.04034424,-27.648854999999998,-15.7786255,-39.732826,0
0.17364502,0.023498535,0.009033203,-25.824427,-31.08397,-55.87786,0
0.17230225,0.02746582,0.02508545,-14.572519,-54.549618,-82.28244000000001,0
0.13446045,0.024353027000000003,0.036254882999999995,2.221374,-76.15267,-99.0229,0
0.14117432,0.027648926,0.021911621000000003,30.67939,-72.52672,-125.76336,0
0.16040039,0.020385742,0.07092285,58.458015,-72.74809,-118.99236,0
0.1663208,0.014770508,0.050720215,61.664124,-81.99235999999999,-127.70228999999999,0
0.16186523,0.007690429699999999,0.02911377,40.328243,-93.45038000000001,-128.28243999999998,0
0.14428711,0.004760742,0.044067382999999995,5.3053436,-86.618324,-139.14503,0
0.1359253,0.007873535,0.061523438,-15.709923999999999,-74.541985,-151.0,0
0.12420654,0.014099121000000001,0.05102539,-3.1908397999999996,-67.40458000000001,-159.35115,0
0.12408447,0.013061523,0.014343261999999999,30.534351,-68.56489,-162.85497,0
0.11657715,0.011108398,0.04272461,55.984733999999996,-64.221375,-153.37403999999998,0
0.11151123,0.010131836,0.04663086,63.78626,-58.44275,-139.18321,0
0.11230469,0.009521484,0.027160645,66.45038000000001,-50.358779999999996,-119.908394,0
0.10699463,0.005981445300000001,0.028198242000000002,61.396946,-41.55725,-99.03053,0
0.10504150400000001,0.0048217773,0.028503418,53.16794,-25.603054,-68.67939,0
0.09875488,0.0052490233999999995,0.033569336,34.633587,-6.839694500000001,-32.87786,0
0.09851074,0.0036010741999999997,0.036499023,10.106871,9.335877,8.664123,0
0.09991455,0.0020141601999999997,0.06439209,-21.236639999999998,35.343509999999995,45.603054,0
0.119628906,0.003112793,0.013916016000000002,-51.244274,64.29771,94.51145,0
0.13616943,0.013366699,0.013793945,-68.137405,95.87786,146.1374,0
0.13671875,0.01171875,0.03137207,-69.80153,109.03817,179.89313,0
0.13354492,0.011413574,0.027832031,-67.92367,107.816795,192.69466,0
0.1239624,0.008422852,0.0071411133,-57.9771,105.07633,188.39694,0
0.14221191,0.009338379,0.031066895,-41.816795,98.41984599999999,178.84734,0
0.15454102,0.013671875,0.03125,-31.10687,85.778625,153.84734,0
0.15631104,0.010803223,0.024108887000000002,-30.465649,73.48092,122.23664,0
0.16253662,0.0138549805,0.013122558999999999,-35.55725,65.48855,94.26717,0
0.15496826,0.018188476999999998,0.008972168,-43.969467,61.71755600000001,74.0458,0
0.13574219,0.023925781,-0.024658202999999997,-46.51145,51.343509999999995,67.05344000000001,0
0.11199951,0.03314209,-0.0028076171999999997,-25.122137,40.06107,64.29008,0
0.11688232400000001,0.031921387,0.0036010741999999997,9.854961,34.358779999999996,64.69466,0
0.12176514,0.02368164,-0.0041503906,26.977097999999998,27.351145000000002,59.480915,0
0.12445068,0.020263672,-0.01550293,20.694656,15.152672,46.381679999999996,0
0.12335205,0.017822266,-0.003967285,9.847328,7.6488547,34.389313,0
0.12457275400000001,0.022094727,0.0020141601999999997,-10.954199000000001,2.1450381000000003,20.824427,0
0.12341308599999999,0.02142334,-0.019592285,-19.648854999999998,-0.9389313,4.068702,0
0.13299560000000002,0.02947998,-0.012451172,-6.076336,-8.343511999999999,-11.893129,0
0.13885498,0.027770996000000003,-0.007690429699999999,2.9541984,-18.10687,-32.549618,0
0.18304443,0.029296875,0.002380371,13.992367000000002,-23.931297,-55.587788,0
0.17944336,0.022033691,0.010253906,24.320610000000002,-38.458015,-70.061066,0
0.18383789,0.023132324,0.04638672,33.053436,-57.82443000000001,-91.12214,0
0.13873291,0.020874023000000002,0.007446289,45.961834,-76.24428,-103.62595,0
0.1508789,0.022094727,0.10815430000000001,56.71755600000001,-78.16794,-128.9771,0
0.1675415,0.017150878999999997,0.09161377,65.42748,-80.08397,-120.9313,0
0.1687622,0.018432617,0.06298828,68.94655999999999,-83.98473,-125.175575,0
0.15533447,0.012390136999999999,0.05706787,52.47328,-94.16031,-128.82443,0
0.1350708,0.010498047,0.034851073999999996,19.862595000000002,-87.39695,-136.59541000000002,0
0.13238525,0.0087890625,0.06378174,0.9236641,-74.33588,-144.96947,0
0.1274414,0.0126953125,0.09875488,-4.946564700000001,-66.36641,-157.14503,0
0.12432861,0.01586914,0.06488037,10.664123,-66.41221999999999,-158.70228999999998,0
0.12194824,0.013671875,0.049926757999999995,32.778625,-59.992367,-149.96947,0
0.1171875,0.010375977,0.03375244,45.816795,-53.343509999999995,-137.07634,0
0.113098145,0.009887695,0.037902832000000004,56.458015,-43.404579999999996,-119.71756,0
0.10668945,0.0071411133,0.029968262000000002,65.51908,-35.923664,-100.145035,0
0.099609375,0.0029296875,0.057495117000000005,67.48092,-22.221375,-72.24428,0
0.095825195,0.0018920898,0.07269287,51.870228000000004,-5.091603299999999,-43.389313,0
0.09918213,0.0013427734,0.0036010741999999997,24.603054,18.992367,-3.1755726,0
0.09490967,0.001159668,0.07714844,-8.106871,40.679390000000005,36.007633,0
0.11010742,0.0071411133,0.056518555,-26.328245000000003,72.27481,82.72519,0
0.11676025400000001,0.0036621094,0.01739502,-34.618320000000004,97.23664000000001,129.61831999999998,0
0.13067627,0.0041503906,0.037841797,-45.412212,117.67938999999998,164.83969,0
0.13574219,0.0065307617,0.05657959,-51.816795,126.83968999999999,192.61068999999998,0
0.14587402,0.006958008000000001,0.04864502,-50.587788,130.51908999999998,201.54199,0
0.16906738,0.009216309,0.035339355,-46.114502,126.229004,203.54199,0
0.17388916,0.009155273,0.014953613000000001,-47.312977000000004,110.98473,184.58015,0
0.17889404,0.012634277,0.05224609400000001,-50.519085,93.66412,155.94656,0
0.16967773,0.014892578,0.06335449,-49.78626,80.0,119.30533999999999,0
0.15417479999999997,0.020324707,0.046569824,-49.320609999999995,65.496185,86.53435,0
0.13995361,0.02508545,0.04168701,-51.671757,52.62595400000001,61.969467,0
0.12536621,0.026428222999999997,0.04840088,-42.374046,38.427483,45.46565,0
0.11297607400000001,0.02947998,-0.00012207030000000001,-23.87023,30.671754999999997,40.473279999999995,0
0.117248535,0.028015137000000002,0.014831543,-2.442748,27.175572999999996,37.969467,0
0.11517334,0.020812988,0.014038086000000002,1.70229,18.435114000000002,32.687022999999996,0
0.11395264,0.017456055,0.0037841796999999997,-7.70229,10.572519,24.694656,0
0.13031006,0.020141601999999998,0.011962891000000002,-23.12977,9.343511999999999,16.335878,0
0.14001465,0.02154541,0.0045776367,-32.694656,9.175572,6.3816795,0
0.1416626,0.021850586,0.0056152343999999995,-39.671757,1.1068702,-8.702291,0
0.12347412,0.026000977,0.027526855,-48.496179999999995,-5.2442746,-30.358778000000004,0
0.16973877,0.031311035,0.009460449000000001,-31.641221999999996,-3.9160306000000005,-54.52672,0
0.15393066,0.03503418,0.03668213,7.8549619999999996,-14.229007999999999,-55.62595400000001,0
0.15045166,0.036132812,0.030273438,58.83206,-39.0,-67.71755999999999,0
0.12182617,0.021972656,0.036193848,87.20611,-60.992367,-81.19084000000001,0
0.13873291,0.018310547,0.025756836,90.40458000000001,-62.312977000000004,-98.23664000000001,0
0.15704346,0.011474608999999998,0.028259277000000003,85.24428,-67.65649,-104.19847,0
0.17163086,0.010498047,0.02734375,72.78626,-75.03817,-119.061066,0
0.1741333,0.011169433999999999,0.039367676000000004,50.282444,-86.221375,-120.54961999999999,0
0.15472412,0.003112793,0.029724121000000003,14.183207000000001,-83.78626,-136.0,0
0.14031982,0.007019043000000001,0.054748535,-14.816792999999999,-73.92367,-151.59541000000002,0
0.1328125,0.010803223,0.04095459,-16.267176,-67.70992,-161.38168000000002,0
0.12133789,0.01574707,0.027648926,7.709923700000001,-63.564884,-158.1374,0
0.11413574,0.013427733999999998,0.035339355,37.343509999999995,-58.030533,-147.75572,0
0.11315918,0.013549805,0.04473877,50.06107,-51.946564,-134.87787,0
0.11297607400000001,0.012023926,0.030639648,55.44275,-42.160305,-116.183205,0
0.10894775400000001,0.008728027,0.0034790040000000004,56.809162,-33.82443,-94.70992,0
0.10345459,0.007751465,0.017700195,59.045803,-21.755726,-64.99235999999999,0
0.10015869,0.0053100586,0.022766112999999998,48.17557,-10.709924,-36.320609999999995,0
0.10052489999999999,0.0009155273,0.020324707,29.816793,3.6183207000000004,-3.6030532999999996,0
0.10308838,0.0015869141,0.024414062,-2.0076337,24.396946,33.503820000000005,0
0.12335205,0.0017700195,0.015991211,-35.08397,49.923664,72.03817,0
0.12939453,0.009460449000000001,0.028442382999999998,-53.900764,75.46565,108.0229,0
0.13940429999999998,0.016601562,0.02130127,-58.129771999999996,90.503815,136.77863,0
0.12768555,0.013244628999999999,0.019470215,-54.22900799999999,94.83206,150.12978,0
0.12585449,0.010864258,0.0026855469,-44.633587,89.69466,148.77100000000002,0
0.13623047,0.008117675999999999,0.013793945,-34.580154,83.15267,139.67175,0
0.14715576,0.014465332,0.03338623,-32.618320000000004,70.27481,120.73283,0
0.14874268,0.014160156,0.08795166,-33.870228000000004,58.587788,97.73283,0
0.15502929999999998,0.012145996000000001,0.074279785,-46.44275,59.190838,70.65649,0
0.15643310000000002,0.013305663999999998,0.07092285,-69.770996,57.32824300000001,56.67175699999999,0
0.14508057,0.020690918,0.053100586,-83.74809,53.18320500000001,54.18320500000001,0
0.119018555,0.030090332,0.011291503999999999,-66.24428,48.679390000000005,59.519085,0
0.10632324,0.034606934,0.030273438,-22.450382,44.900764,72.80915999999999,0
0.11102295,0.032287598,0.009643555,23.977098,44.656490000000005,79.05344000000001,0
0.12005615,0.026733398,0.05615234400000001,49.687022999999996,41.21374,84.68701999999999,0
0.12652588,0.023925781,0.03704834,52.06107,33.839695,81.10687,0
0.13372803,0.018432617,0.01776123,37.160305,29.48855,71.31298000000001,0
0.14044189999999998,0.01586914,0.016479492,3.2900763,23.992367,54.0229,0
0.14227295,0.020141601999999998,0.014465332,-27.374046000000003,12.946565,27.91603,0
0.15124512,0.028137207,0.034240723,-34.198475,0.3053435,-0.2977099,0
0.16253662,0.030639648,0.017089844,-29.656488,-7.343511599999999,-27.198473,0
0.16845703,0.032165527,0.05999756,-15.78626,-20.648854999999998,-55.541985,0
0.16363525,0.02923584,0.04815674,4.0305343,-34.0229,-73.62595,0
0.16906738,0.024475097999999997,0.031188965,21.595419,-48.84733,-92.31298000000001,0
0.13482666,0.020751953,0.04284668,26.312977000000004,-67.72519,-107.68701999999999,0
0.12237549,0.022155762000000002,0.037597656,32.618320000000004,-72.66412,-132.84734,0
0.14080810000000002,0.020629883,0.07458496,50.274809999999995,-71.770996,-134.36641,0
0.15197754,0.021728516,0.061401367000000005,73.32061,-75.19084000000001,-124.0458,0
0.16186523,0.023254395,0.04827881,86.20611,-80.091606,-117.78626000000001,0
0.15161133,0.012573242,0.06304932,61.587788,-84.34351,-105.42748,0
0.1381836,0.0072021483999999995,0.061645507999999995,22.595419,-74.67175,-105.75572,0
0.12207031,0.00793457,0.04547119,-8.053435,-66.38931,-109.48092,0
0.11816406,0.014038086000000002,0.042907715,-19.87023,-58.656490000000005,-113.52672,0
0.10809326,0.018310547,0.045837402,-5.6793895,-59.190838,-111.68701999999999,0
0.10418701,0.019714355,0.07623291,14.954199,-52.931297,-109.52672,0
0.10620117,0.0146484375,0.05328369,29.687022999999996,-43.076336,-96.862595,0
0.10491943,0.010498047,0.048828125,34.190838,-33.08397,-78.0229,0
0.097473145,0.009338379,0.04510498,30.419846999999997,-21.007633,-59.366413,0
0.09655762,0.0087890625,0.042663574,28.717558,-7.5648856,-32.053436,0
0.10394287,0.006286621,0.043273926,16.839695000000003,9.022901,2.465649,0
0.11450195,0.008239746,0.036071777,-2.4198472,27.38168,39.221375,0
0.12719727,0.010070800999999999,0.054992676,-26.0,46.267174,76.458015,0
0.14776611,0.006652831999999999,0.03741455,-48.725190000000005,69.58015400000001,108.87023,0
0.15637207,0.014282227,0.03564453,-59.984733999999996,94.73283,141.14503,0
0.15075684,0.015563965,0.007019043000000001,-51.404579999999996,108.03053,164.9542,0
0.1383667,0.022766112999999998,-0.0045776367,-28.091602,101.938934,173.35878,0
0.1182251,0.024108887000000002,0.013549805,10.854961,92.0687,165.92366,0
0.13702393,0.020019531,0.03753662,39.78626,86.778625,149.14503,0
0.14447021,0.018737793,0.036193848,53.84733000000001,72.80915999999999,126.24428,0
0.14874268,0.0067749023,0.046325684000000006,39.984734,61.22900799999999,91.98473,0
0.15930176,-0.0008544922000000001,0.01739502,-1.8549619,54.0229,60.908398,0
0.15356445,0.0033569335999999996,-0.027770996000000003,-50.335876,48.603054,38.587788,0
0.13171387,0.017700195,-0.0067749023,-67.51908,32.862595,21.89313,0
0.11328125,0.023620605,-0.026306152000000003,-52.87786,21.198473,13.2213745,0
0.10583496,0.019592285,0.0006103516000000001,-18.51145,10.687023,12.045800999999999,0
0.10205078,0.016479492,-0.015380858999999998,0.67175573,5.5496182,6.961832000000001,0
0.10900879,0.012329102,-0.0031738281,-1.4045801000000002,-2.9007633,6.709923700000001,0
0.11212158,0.0134887695,0.0016479492000000002,-4.6412214999999994,-8.404580000000001,5.6488547,0
0.11743164,0.014038086000000002,-0.018920898000000002,-3.5877862,-11.229008,7.8320612999999994,0
0.11981201,0.015808105,-0.0028686523,-7.4732823,-13.763359,1.0229008,0
0.12902832,0.0154418945,-0.022216797000000003,-10.725191,-16.824427,-6.9465647,0
0.1449585,0.018493652,0.028076172000000003,-10.549619,-20.679389999999998,-17.847328,0
0.16021729,0.015258788999999998,0.012634277,-10.770992,-22.244274,-28.38168,0
0.17895508,0.015136719,0.012939453,-9.389313000000001,-30.404581,-42.603054,0
0.1796875,0.011047363000000001,0.013427733999999998,-13.816792999999999,-36.778625,-54.916030000000006,0
0.1774292,0.013793945,0.06274414,-15.290076000000001,-47.946564,-75.73283,0
0.12799072,0.013793945,0.07147217,-15.755725,-63.343509999999995,-100.23664000000001,0
0.10107422,0.017822266,0.09143066400000001,-11.160305000000001,-65.34351,-132.17557,0
0.12213135,0.016662598,0.05065918,3.9694656999999998,-57.0,-144.12213,0
0.14001465,0.019226074,0.031066895,30.687022999999996,-48.198475,-131.58778,0
0.15039062,0.021362305,0.057556152,60.396946,-48.351147,-119.35113999999999,0
0.15148926,0.019348145,0.04168701,70.03817,-54.251906999999996,-86.56489,0
0.120910645,0.014709473,0.07055664,56.099236,-43.87786,-67.58015400000001,0
0.10223389,0.010437011999999999,0.072143555,31.23664,-27.67939,-55.427482999999995,0
0.09613037,0.0138549805,0.052612305,18.015266,-17.671754999999997,-53.59542,0
0.09277344,0.018859863,0.044555664,27.229008,-15.702291,-52.679390000000005,0
0.08868408,0.016662598,0.044677734000000004,40.580154,-12.435115,-46.328243,0
0.09155273400000001,0.0146484375,0.053466797,43.839695,-5.1221375,-37.679390000000005,0
0.099121094,0.012329102,0.036010742000000005,40.885498,3.2290077,-27.030534999999997,0
0.10656738,0.011962891000000002,0.07513428,31.068703000000003,8.328244,-7.6106872999999995,0
0.10992432,0.011779785,0.08111572,15.580152499999999,14.78626,7.328244000000001,0
0.12078857400000001,0.010559082,0.05267334,-4.854962,27.480916999999998,28.61832,0
0.13494873,0.008850098,0.035705566,-30.633587,37.23664,52.778625,0
0.13995361,0.010498047,0.057373047,-53.793890000000005,42.129771999999996,67.58015400000001,0
0.15454102,0.016052246000000003,0.03692627,-68.16794,53.450382,81.854965,0
0.16912842,0.012512207,0.053833007999999995,-73.47328,64.137405,99.94655999999999,0
0.17614746,0.016845703,0.055480957000000004,-79.83969,74.46565,108.19847,0
0.15814209,0.020446777,0.057800292999999996,-78.26717,71.824425,112.28244,0
0.11828613,0.022155762000000002,-0.0017089844000000001,-56.603054,56.55725,103.45038000000001,0
0.10284424,0.021118164,0.045166015999999996,-28.51145,48.198475,77.854965,0
0.11560058599999999,0.017028809,0.026855469,-13.839695,45.587788,56.30534399999999,0
0.13183594,0.017822266,0.04309082,-1.9465648999999998,38.618320000000004,41.450382,0
0.14123535,0.012512207,0.05316162,-12.19084,25.816793,20.137404999999998,0
0.15289307,0.008178711,0.028930664,-35.44275,14.427481,13.305344,0
0.13757324,0.0134887695,0.03491211,-55.37404599999999,11.053435,10.167939,0
0.12066650400000001,0.01940918,0.011779785,-59.725190000000005,7.2290077,3.2595419999999997,0
0.103515625,0.02355957,0.014343261999999999,-44.23664,5.3893127,3.3740457999999998,0
0.093566895,0.022460938,0.006225586,-17.076335999999998,2.0076337,9.839694999999999,0
0.09661865,0.020874023000000002,-0.0030517578000000003,11.770992,3.0229008,11.709924,0
0.10858154,0.014282227,0.033996582000000004,20.748089999999998,2.183206,14.61832,0
0.11358642599999999,0.014465332,-0.01159668,20.068703,-0.35877863,18.984734,0
0.11987305,0.013183594,0.001159668,16.206106,-2.923664,19.374046,0
0.11608887,0.013061523,0.016662598,2.053435,-1.519084,11.465649,0
0.11932373,0.012817383,-0.0010986328,-8.877863,-1.7175573,1.3816794,0
0.13842773,0.01940918,0.031677246,-3.5114503,-2.9770992,-6.221374,0
0.14520264,0.016906738,0.012817383,3.832061,-6.847328,-12.503817,0
0.17077637,0.016479492,0.036254882999999995,3.3435113,-10.748092,-23.190839999999998,0
0.15734863,0.018859863,0.013427733999999998,-1.1679389999999998,-16.526718,-30.122137,0
0.16308594,0.01739502,0.025634766,2.091603,-22.984734,-45.992367,0
0.16125488,0.019226074,0.021484375,18.61832,-32.85496,-49.74046,0
0.12854004,0.018920898000000002,0.026977539,28.633587,-52.21374,-53.893130000000006,0
0.121276855,0.023010253999999997,0.02355957,48.46565,-53.14504,-74.30534,0
0.13677979,0.01977539,0.04144287,70.908394,-54.732826,-74.64121999999999,0
0.14099121,0.014709473,0.0357666,87.21374,-58.18320500000001,-70.1145,0
0.14764404,0.010559082,0.044006348,78.824425,-64.900764,-72.938934,0
0.13134766,0.007019043000000001,0.02960205,44.183205,-62.045803,-78.01527,0
0.13098145,0.011291503999999999,0.04309082,6.80916,-50.419846,-85.137405,0
0.11584473,0.014892578,0.022521972999999997,-8.267176,-41.969467,-91.51145,0
0.1026001,0.016357422,0.04168701,-1.6183206,-36.694656,-102.381676,0
0.09906006,0.017822266,0.020385742,16.763360000000002,-33.190838,-102.938934,0
0.0925293,0.018127441,0.021972656,29.900763,-25.404581,-106.64886000000001,0
0.10003662,0.010498047,0.025878906,32.427483,-15.045801,-98.061066,0
0.09698486,0.010986328,0.07330322,32.389313,-5.1679387000000006,-80.78626,0
0.0881958,0.006286621,0.005676269499999999,36.89313,6.5648856,-53.480915,0
0.0925293,0.011108398,0.08874512,38.44275,21.687023,-17.152672,0
0.09826660000000001,0.004028320300000001,-0.014465332,28.42748,39.374046,29.580153000000003,0
0.11193848,0.0048217773,0.011047363000000001,9.648855000000001,59.954197,72.07633,0
0.1307373,0.0038452148,0.01928711,-14.832060999999998,78.98473,114.34351000000001,0
0.16809082,0.006286621,0.032836914,-36.15267,94.25954399999999,150.0229,0
0.19622803,-0.00018310549999999998,0.039489746,-56.450382,103.25191,170.59541000000002,0
0.19580078,0.004211426,0.0881958,-88.01527,92.96947,172.58015,0
0.1552124,0.0049438477,0.06567383,-136.21375,66.28244000000001,149.25954,0
0.11193848,0.01171875,0.060424805,-167.29771000000002,47.46565,108.099236,0
0.11694336,0.018554688,0.042053223,-164.37403999999998,44.15267,61.030533,0
0.11267089999999998,0.02923584,0.0072021483999999995,-124.778625,38.84733,28.458015000000003,0
0.13983154,0.03704834,0.043395996,-71.229004,18.793894,6.3816795,0
0.15447998,0.029663086,0.08465576,-16.206106,0.73282444,-8.129771,0
0.14459229,0.022583007999999998,0.07067871,7.740458,1.8244275,-9.206107000000001,0
0.12280273400000001,0.015014648,0.07543945,-4.2824425999999995,4.8702292,-2.2519082999999998,0
0.10229492,0.018066406,0.022521972999999997,-26.80916,5.053435299999999,-0.5114504,0
0.08929443,0.0211792,0.041137695,-29.343512,6.931298,2.1984732000000005,0
0.09161377,0.024047852,-0.0010986328,-10.366412,10.931297,13.206107000000001,0
0.099121094,0.026916503999999997,0.061584473,10.2595415,16.641222,22.526718,0
0.11138916,0.023864746000000003,0.02508545,22.160304999999997,20.93893,28.465649,0
0.11291504,0.018432617,0.03942871,21.725191,20.076335999999998,33.381679999999996,0
0.11883545,0.017211914,0.027709961,13.351145,21.0,31.526718,0
0.12609863,0.018310547,0.015625,4.1603055,23.839695000000003,22.931297,0
0.14111328,0.024841309,0.019226074,15.076335999999998,21.351145000000002,16.832062,0
0.16009521,0.022216797000000003,0.020019531,36.687022999999996,15.21374,9.183207000000001,0
0.18920898,0.022888184,0.036987305,50.030533,6.9160304,-4.633588,0
0.18139648,0.017211914,0.033691406,52.71755600000001,-8.9007635,-20.320610000000002,0
0.17218018,0.014709473,0.04168701,45.435116,-29.06107,-52.778625,0
0.14569092,0.01171875,0.0501709,32.885498,-48.015266,-73.71755999999999,0
0.10699463,0.017211914,0.04663086,26.389313,-60.923664,-95.79389,0
0.1083374,0.018066406,0.028137207,31.32061,-60.687022999999996,-118.091606,0
0.12054443,0.018310547,0.044128417999999996,43.14504,-59.335876,-114.42748,0
0.13720703,0.023742676,0.06341553,63.274809999999995,-61.007633,-102.39695,0
0.14642334,0.022827148,0.057373047,72.900764,-65.9313,-87.87023,0
0.13690186,0.014038086000000002,0.041015625,52.52672,-61.46565,-69.75572,0
0.12438965,0.012329102,0.04559326,18.931297,-52.83206,-63.419846,0
0.11358642599999999,0.013366699,0.034179688,-7.5801525,-43.419846,-68.778625,0
0.10491943,0.01940918,0.043029785,-9.091603,-39.343509999999995,-67.229004,0
0.09686279,0.02355957,0.05041504,7.9160304,-34.091602,-64.816795,0
0.09777832,0.020812988,0.037353516,27.519083000000002,-26.587785999999998,-60.732826,0
0.09979248,0.01739502,0.05078125,39.06107,-17.099237,-55.450382,0
0.10455322,0.01574707,0.04931640599999999,42.129771999999996,-6.6335880000000005,-50.14504,0
0.11096191400000001,0.013793945,0.020996094,39.961834,-0.08396947,-30.358778000000004,0
0.11560058599999999,0.012573242,0.04284668,36.870228000000004,6.8549619999999996,-9.641221,0
0.12646484,0.011108398,0.035095215,22.57252,19.312977,17.51145,0
0.14453125,0.008422852,0.041503906,-0.4274809,27.687022999999996,44.702290000000005,0
0.17364502,0.00793457,0.052490234000000004,-31.221375,42.732826,68.15267,0
0.17663574,0.0028076171999999997,0.04901123,-69.12214,60.129771999999996,88.83969,0
0.17419434,0.014892578,0.026000977,-89.496185,68.862595,100.908394,0
0.13244629,0.01776123,0.023071289,-78.55725,60.061069999999994,100.91603,0
0.09332275400000001,0.024597168,0.003540039,-45.839695,45.954197,85.96947,0
0.09838867,0.01965332,0.0073242188,-7.1679387000000006,44.83206,71.98473,0
0.12066650400000001,0.018432617,0.038391113,20.458015,45.099236,60.190838,0
0.12585449,0.009460449000000001,0.030700684,17.526718,37.496179999999995,48.389313,0
0.14257812,0.005493164,0.01586914,-5.847328,29.007633000000002,32.587788,0
0.13146973,0.005981445300000001,0.005126953,-47.25954,27.435114000000002,35.10687,0
0.12762451,0.016174316,0.043029785,-74.27481,27.603053999999997,39.778625,0
0.11749267599999999,0.02368164,0.029846191,-74.60305,27.801527,43.007633,0
0.111816406,0.025878906,0.026855469,-42.885498,24.839695000000003,45.389313,0
0.11004639,0.02331543,-0.010925293,1.0458015,18.137404999999998,44.312977000000004,0
0.1071167,0.016723633,0.02758789,16.267176,11.671756,43.748093,0
0.10748291,0.012023926,0.03857422,1.2900764,8.145039,32.160305,0
0.11450195,0.013916016000000002,0.033081055,-15.603053,8.946565,29.305344,0
0.12689209,0.019042969,0.026550293,-21.206106,8.251908,24.671754999999997,0
0.13043213,0.02154541,0.03704834,-20.656488,4.0992365,21.038168,0
0.13604736,0.024841309,0.04333496,-13.572519,1.3664121999999999,17.167938,0
0.15844727,0.031066895,-0.012207031,-4.778626,3.4427480000000004,10.290076,0
0.17327881,0.027282715,0.03552246,2.557252,-4.3587785000000006,-1.1526718,0
0.16046143,0.028747559,0.036132812,8.908397,-13.541985,-19.305344,0
0.18243408,0.029296875,0.051818848,23.442749,-24.89313,-46.526720000000005,0
0.11816406,0.025024414,0.05493164,33.961834,-47.85496,-55.068703,0
0.09637451,0.026794434,0.034606934,36.717556,-53.068703,-103.48092,0
0.1373291,0.02545166,0.056884765999999996,55.702290000000005,-45.038166,-113.9313,0
0.15942383,0.02166748,0.059692382999999995,81.0687,-40.305344,-100.938934,0
0.15966797,0.027893066,0.080078125,98.08397,-46.496179999999995,-97.938934,0
0.14276123,0.0178833,0.034729004,95.33588,-53.900764,-85.74045600000001,0
0.13122559,0.014404297,0.034484863,74.23664000000001,-42.503820000000005,-84.87023,0
0.117004395,0.013061523,0.05834961,49.496179999999995,-31.732824,-83.41984599999999,0
0.11126709,0.017944336,0.06793213,43.885498,-32.305344,-78.38931,0
0.10327148400000001,0.020263672,0.06878662,56.541985,-38.633587,-79.72519,0
0.09942627,0.016418457,0.057922363,65.778625,-38.015266,-74.89313,0
0.10546875,0.015930176,0.06072998,62.129771999999996,-33.17557,-67.74809,0
0.11425781,0.010925293,0.05255127,55.81679499999999,-30.076335999999998,-56.923664,0
0.11486816400000001,0.008605957,0.062194824,39.83206,-28.045801,-52.450382,0
0.11981201,0.0064086914,0.048583984000000004,18.519083,-20.648854999999998,-37.068703,0
0.1260376,0.0064086914,0.050048828,-13.709923999999999,-7.2137402999999996,-18.450382,0
0.13311768,0.010620117,0.048095703,-44.656490000000005,2.2442749,5.671755999999999,0
0.144104,0.015014648,0.05718994,-55.755726,19.274809,27.793894,0
0.15185547,0.014953613000000001,0.048706055,-52.366413,37.954197,53.48855,0
0.15344238,0.018066406,0.041931152,-47.809162,55.61832,74.71755999999999,0
0.13909912,0.012756348,0.049560547,-37.198475,65.43511,90.71755999999999,0
0.11468506,0.017578125,0.021240234,-22.992367,59.69465600000001,87.35114,0
0.09082031,0.012756348,0.056884765999999996,-9.671756,50.351147,79.00764000000001,0
0.10845947,0.009155273,0.029174805,1.8015267,50.221375,63.885498,0
0.11761474599999999,0.008422852,0.0211792,6.091603299999999,46.038166,58.725190000000005,0
0.13372803,0.0065307617,0.045776367000000005,-2.8015267999999995,43.679390000000005,49.251907,0
0.1519165,0.009521484,0.033691406,-18.671754999999997,41.503820000000005,52.587788,0
0.13336182,0.012817383,0.019165039,-27.10687,37.992367,55.18320500000001,0
0.10949707,0.015075683999999999,0.008056641,-33.343509999999995,33.992367,51.610687,0
0.10119629,0.01586914,-0.011230469,-38.519085,33.572517,48.427483,0
0.103515625,0.024536132999999998,0.006652831999999999,-24.458015,37.290077000000004,48.923664,0
0.12579346,0.032348632999999995,0.0013427734,11.358779,39.10687,52.328243,0
0.12615967,0.021728516,0.017700195,33.748093,29.816793,57.335876,0
0.12640381,0.016418457,0.016906738,42.229008,24.053434,56.435116,0
0.122924805,0.01361084,-0.010192871,38.221375,21.793894,52.946564,0
0.12786865,0.014465332,-0.009643555,23.656488,13.465648999999999,40.297709999999995,0
0.13653564,0.011230469,0.008605957,8.946565,1.3129771000000001,23.015266,0
0.14672852,0.015319824,0.0025634766,-9.458015,-11.618319999999999,5.557252,0
0.16888428,0.01184082,0.009887695,-24.57252,-18.244274,-17.0,0
0.17041016,0.016113281,0.024475097999999997,-37.0,-30.709923,-41.10687,0
0.1687622,0.015991211,0.0154418945,-41.778625,-40.045803,-57.44275,0
0.16253662,0.022705077999999997,0.0003662109,-32.160305,-52.46565,-75.69466,0
0.11383057,0.023986816,0.015075683999999999,-15.145039,-63.015266000000004,-90.19084000000001,0
0.10876465,0.029785156,0.0068359375,15.717557000000001,-57.129771999999996,-104.69466,0
0.13720703,0.030395507999999998,0.02545166,58.16794,-55.061069999999994,-101.938934,0
0.14086914,0.016601562,0.03302002,87.51908,-60.30534399999999,-83.25954399999999,0
0.15289307,0.020874023000000002,0.13793945,81.76335999999999,-66.19084000000001,-81.83206,0
0.14013672,0.009765625,0.028503418,60.732826,-64.541985,-82.16031,0
0.12915039,0.0041503906,0.018859863,32.641220000000004,-55.76336,-85.57252,0
0.122924805,0.010314941,0.07928467,11.137404,-48.17557,-95.94655999999999,0
0.10968017599999999,0.015197753999999999,0.074401855,12.351144999999999,-47.17557,-105.0458,0
0.10064697,0.014953613000000001,0.06390381,28.389313,-44.099236,-101.816795,0
0.09954834,0.014160156,0.08404541,41.564884,-36.770992,-98.72519,0
0.10028076,0.012573242,0.05999756,42.84733,-29.503816999999998,-85.36641,0
0.10113525400000001,0.011474608999999998,0.061462402,43.870228000000004,-22.702289999999998,-66.57252,0
0.10577392599999999,0.009277344,0.051574707000000004,39.870228000000004,-12.572519,-50.396946,0
0.11560058599999999,0.006286621,0.08691406,26.198473,-0.19847329,-16.656488,0
0.12298584,0.0049438477,0.034362792999999996,0.5496183000000001,13.236641,13.412213000000001,0
0.1352539,0.0021362305,0.047302246,-29.526718,21.251910000000002,42.030533,0
0.15808105,0.0018310547,0.061767578,-62.190838,35.641220000000004,67.43511,0
0.15997314,0.0061035156000000005,0.056030273,-87.0458,54.17556999999999,92.78626,0
0.1593628,0.010986328,-0.01361084,-90.458015,66.16031,112.26717,0
0.13250732,0.013366699,0.051879882999999995,-70.908394,64.0458,121.05344,0
0.10021973,0.014770508,0.047607422,-47.0229,55.519085,111.91603,0
0.10186767599999999,0.009521484,0.055786132999999995,-35.381679999999996,57.206109999999995,101.62595,0
0.13189697,0.010681152,0.04071045,-21.458015,55.656490000000005,95.28244000000001,0
0.13964844,0.010803223,0.04443359400000001,-22.641222,45.519085,90.01527,0
0.15142822,0.011291503999999999,0.07000732400000001,-36.229008,35.48855,74.57252,0
0.15362549,0.010498047,0.056274414,-66.9313,38.17557,64.35878000000001,0
0.14001465,0.01171875,0.061279297,-105.30533999999999,41.725190000000005,59.335876,0
0.12634277,0.022277832,0.018981934,-131.50381000000002,37.0229,50.503820000000005,0
0.10748291,0.032165527,0.01739502,-116.96183,35.572517,44.519085,0
0.10394287,0.040527344,0.040893555,-65.25191,34.091602,43.312977000000004,0
0.10760498,0.03778076,0.008666992,2.3282442000000003,31.099237,46.328243,0
0.113464355,0.03173828,0.023986816,45.221375,27.839695000000003,48.10687,0
0.12048339999999998,0.025268555,0.01953125,65.145035,22.900763,50.946564,0
0.12109375,0.020324707,0.01965332,75.862595,21.595419,46.74046,0
0.12084961,0.014526367,0.025268555,64.938934,17.343512,42.74046,0
0.1381836,0.010009766,0.0052490233999999995,42.687022999999996,11.053435,32.267174,0
0.14807129,0.014892578,-0.021728516,21.335878,-1.7557251,16.969465,0
0.18609619,0.018737793,0.027954102,10.541985,-11.839694999999999,-4.5419846,0
0.1953125,0.01965332,0.05432129,9.21374,-31.244274,-27.053434000000003,0
0.17150879,0.017578125,0.04144287,0.41984734,-58.38168,-56.076336,0
0.12677002,0.018554688,0.052856445,-7.8015265,-81.824425,-97.29771,0
0.09838867,0.015014648,0.05706787,-11.549619,-80.00764000000001,-139.45801,0
0.13342285,0.018188476999999998,0.060546875,-4.259542,-70.20611,-160.22137,0
0.1539917,0.021850586,0.04724121,26.351145000000002,-63.38168,-147.9313,0
0.16583252,0.029907227,0.035949707000000004,66.541985,-69.80153,-148.24428,0
0.15997314,0.022827148,0.026000977,77.25954399999999,-75.175575,-117.900764,0
0.14111328,0.013916016000000002,0.04852295,60.923664,-65.87023,-105.30533999999999,0
0.12976074,0.00970459,0.044067382999999995,40.74046,-54.045803,-99.79389,0
0.11804199,0.01159668,0.06024169999999999,26.687022999999996,-48.694656,-104.091606,0
0.10827637,0.012512207,0.015014648,28.076335999999998,-49.045803,-108.50381499999999,0
0.10357666,0.015258788999999998,0.040527344,36.931297,-45.366413,-105.49618500000001,0
0.10345459,0.012023926,0.048217773,43.458015,-36.816795,-97.87023,0
0.10900879,0.008911133,0.035888672,48.770992,-30.862595000000002,-88.57252,0
0.111328125,0.0031738281,0.036071777,43.954197,-27.442749,-73.824425,0
0.0993042,0.0018310547,0.02758789,35.320609999999995,-17.93893,-55.656490000000005,0
0.10205078,6.1035155999999994e-05,0.0028076171999999997,16.480917,-2.167939,-33.87786,0
0.10748291,-0.0009765625,0.016479492,-6.4198474999999995,13.587786999999999,-4.259542,0
0.113342285,0.0007324219,0.014160156,-27.992366999999998,30.992366999999998,28.480916999999998,0
0.14038086,0.008117675999999999,0.02532959,-49.267174,55.992367,71.26717,0
0.1494751,0.008605957,0.024841309,-62.297709999999995,76.67939,112.76336,0
0.15020752,0.006652831999999999,0.014709473,-66.26717,91.34351,142.92366,0
0.13616943,0.0095825195,-0.009460449000000001,-66.70229,91.0229,163.89313,0
0.11950683599999999,0.011230469,-0.007080078,-64.37405,80.92367,157.83969,0
0.12188721,0.010559082,0.047607422,-62.17556999999999,76.72519,151.10687,0
0.15002441,0.013183594,0.09051514,-51.12214,72.73283,135.85497,0
0.15625,0.013427733999999998,0.045776367000000005,-44.862595,61.061069999999994,117.0,0
0.16583252,0.016174316,0.06829834,-55.40458,49.08397,94.46565,0
0.15020752,0.018493652,0.03955078,-74.74809,40.183205,74.73283,0
0.12976074,0.024475097999999997,0.013122558999999999,-78.54961999999999,37.374046,57.274809999999995,0
0.123046875,0.030944824,0.018310547,-62.702290000000005,35.282444,53.35878,0
0.12170410000000002,0.03741455,0.035705566,-23.709923,28.503816999999998,54.961833999999996,0
0.11730957,0.032714844,0.01940918,8.320611,19.374046,51.007633,0
0.120910645,0.026672362999999998,0.021057128999999997,13.0992365,12.129771,45.015266,0
0.11853027,0.024230957,0.050720215,4.0992365,8.954199000000001,34.541985,0
0.117126465,0.020385742,-0.034301757999999995,-9.931297,4.9007635,24.053434,0
0.12005615,0.029907227,0.0021972656,-9.671756,0.6870229,4.221374,0
0.13232422,0.03100586,0.024230957,0.061068702,-3.1526718,-8.580152499999999,0
0.14416504,0.030883789,0.06524658,10.419847500000001,-9.167939,-21.419847,0
0.14324951,0.02960205,0.060791015999999996,11.877863,-15.526717000000001,-38.16794,0
0.17504883,0.029418945,0.06817627,11.931297,-16.961832,-54.59542,0
0.18408203,0.025756836,0.06842041,14.648855,-30.954199,-91.496185,0
0.14923096,0.019958496000000003,0.04748535,24.740458,-44.9771,-103.58778000000001,0
0.10687256,0.023803711,0.029541016,33.816795,-57.564884,-124.91603,0
0.15704346,0.018127441,0.07476807,89.75572,-56.78626,-120.78626000000001,0
0.14562988,0.016784668,0.08044433599999999,82.061066,-62.725190000000005,-100.51908,0
0.12890625,0.016235351999999998,0.05126953,58.053436,-54.610687,-92.83206,0
0.11645508,0.008972168,0.05206299,34.282444,-39.21374,-78.496185,0
0.10839844,0.0134887695,0.052978515999999996,21.656488,-33.84733,-67.41984599999999,0
0.10284424,0.018127441,0.06652832,21.740458,-33.862595,-63.809162,0
0.09436035,0.01751709,-0.006225586,31.992366999999998,-28.770992,-54.18320500000001,0
0.09326172,0.014160156,0.04931640599999999,34.267174,-18.335878,-45.53435,0
0.10058594,0.012939453,0.041748047,32.770992,-9.969465,-34.526720000000005,0
0.10083008,0.008300781,0.029968262000000002,27.969465000000003,-3.2900763,-18.38168,0
0.10388183599999999,0.011047363000000001,0.03277588,18.778625,3.0687022,-3.8015267999999995,0
0.10583496,0.010070800999999999,0.027160645,4.6106873,14.572519,14.587786999999999,0
0.11846924,0.009765625,0.03552246,-16.442749,28.404581,36.381679999999996,0
0.13806152,0.008361816,0.039733887,-40.045803,38.335876,62.67175699999999,0
0.17596436,0.01776123,0.05456543,-75.19847,71.137405,115.67175,0
0.18121338,0.018859863,0.022155762000000002,-79.83206,84.73283,133.46565,0
0.1552124,0.024780273,0.033081055,-64.061066,82.73283,138.23665,0
0.11358642599999999,0.030151367000000002,0.020935059,-26.503816999999998,64.20611,121.39695,0
0.09606933599999999,0.020507812,0.005493164,12.366412,53.480915,98.83969,0
0.122558594,0.016052246000000003,0.04333496,22.854961,53.389313,67.65649,0
0.1307373,0.01159668,0.03692627,16.549618,50.366413,46.954197,0
0.1439209,0.007873535,0.042419434000000006,-10.274809,40.480915,26.595419,0
0.15045166,0.007446289,0.014770508,-38.908398,33.702290000000005,22.740458,0
0.13220215,0.015625,-0.006652831999999999,-62.893130000000006,28.877863,20.06107,0
0.111206055,0.022644043,0.016357422,-77.770996,29.435114000000002,17.160304999999997,0
0.101745605,0.02746582,0.0079956055,-60.885498,27.961832,22.48855,0
0.10620117,0.03466797,0.0099487305,-9.129771,24.160304999999997,29.412214000000002,0
0.103393555,0.029052734,-0.0211792,31.961832,18.221375,32.358779999999996,0
0.10852051,0.019348145,-0.002380371,39.83206,11.885496,33.15267,0
0.11767578,0.017089844,0.012512207,38.091602,8.534351,30.08397,0
0.12164307,0.018066406,0.005493164,28.76336,6.1297708,22.526718,0
0.13366699,0.017456055,0.008056641,15.656488000000001,-0.78625953,13.770992000000001,0
0.1395874,0.020629883,0.010314941,11.282442999999999,-8.824428,0.5801527,0
0.15051270000000003,0.021484375,0.008728027,16.786259,-13.160305,-13.893129,0
0.16198729999999997,0.019226074,0.013793945,15.305344,-17.763360000000002,-27.549618,0
0.16607666,0.018798828,0.014526367,8.916031,-28.10687,-49.793890000000005,0
0.14855957,0.019165039,0.018737793,6.519083999999999,-35.381679999999996,-63.755726,0
0.15747070000000002,0.023620605,0.014404297,21.198473,-41.984734,-79.59541999999999,0
0.13745117,0.018310547,0.015197753999999999,39.78626,-54.083969999999994,-83.25191,0
0.11938476599999999,0.021057128999999997,0.07952881,50.641220000000004,-67.0,-99.46565,0
0.14007568,0.01953125,0.027282715,59.862595,-65.48092,-104.55725,0
0.1519165,0.019592285,0.06933594,69.94655999999999,-57.17556999999999,-91.42748,0
0.1605835,0.024414062,0.06726074,73.68701999999999,-56.64122,-83.07633,0
0.14831543,0.019104003999999997,0.023498535,55.709922999999996,-59.14504,-69.091606,0
0.12957764,0.01373291,0.07098389,24.183207,-48.702290000000005,-72.48855,0
0.11419678,0.015563965,0.07464599599999999,6.4351144,-35.9771,-70.908394,0
0.105407715,0.023010253999999997,0.059326172,14.541985,-29.816793,-74.43511,0
0.095703125,0.024230957,0.059936523,43.08397,-31.908398,-77.41221999999999,0
0.09136963,0.01940918,0.06347656,65.78626,-29.595419,-78.92367,0
0.09698486,0.017211914,0.07910156,71.94655999999999,-25.419847,-76.32825,0
0.10308838,0.014343261999999999,0.09460449,72.16794,-18.839695000000003,-68.74045600000001,0
0.11047363,0.010192871,0.05871582,65.44275,-12.587786999999999,-53.549618,0
0.11437988,0.010864258,0.06005859400000001,47.793890000000005,-3.59542,-32.305344,0
0.11578369,0.009216309,0.03125,21.465649,8.496183,-5.145038,0
0.12017822,0.0073242188,0.06921387,-14.519084,26.717558,20.450382,0
0.13183594,0.011169433999999999,0.08868408,-38.572517,40.84733,49.526720000000005,0
0.16381836,0.014892578,0.06683349599999999,-45.297709999999995,63.40458,80.29771,0
0.17205810000000002,0.015625,0.09704589999999999,-47.045803,80.25954399999999,113.45038000000001,0
0.17016602,0.015319824,0.035339355,-43.412212,88.54961999999999,125.96947,0
0.14660645,0.014587402,0.0037231445,-35.44275,79.381676,121.21373999999999,0
0.10583496,0.013122558999999999,-0.0043945312,-22.08397,58.458015,101.091606,0
0.09777832,0.007385254,-0.0071411133,-19.969465,53.083969999999994,78.64121999999999,0
0.12109375,0.011291503999999999,0.054382324,-17.603054,55.450382,53.656490000000005,0
0.13183594,0.011657715,0.045715332000000004,-7.80916,49.328243,44.992367,0
0.14636229999999997,0.012512207,0.04498291,-9.106871,36.55725,33.328243,0
0.15051270000000003,0.010437011999999999,0.050842285,-19.595419,28.755726,36.389313,0
0.13348389,0.012451172,0.014892578,-39.641220000000004,28.06107,40.267174,0
0.11907959,0.018554688,0.03930664,-62.793890000000005,28.213741,39.0,0
0.10058594,0.02368164,0.06744385,-59.23664,28.91603,42.17557,0
0.10217285,0.03265381,0.025878906,-24.770992,25.969465,45.038166,0
0.10614014,0.034729004,-0.018493652,26.877863,22.977098,49.16794,0
0.11755371,0.026977539,0.023071289,61.900764,19.290077,47.10687,0
0.12036133,0.021972656,0.013427733999999998,69.824425,9.938931,47.519085,0
0.11590576,0.016418457,0.035095215,59.48855,6.2290077,36.656490000000005,0
0.12640381,0.011962891000000002,0.014709473,34.53435,4.4274807,24.595419,0
0.12988281,0.018493652,0.017700195,12.694656,0.39694658,11.038167999999999,0
0.14270020000000003,0.025512695,0.021972656,13.702291,-8.0,-1.8015267,0
0.17095947,0.027038574,0.02923584,20.908398000000002,-11.366412,-18.732824,0
0.18688965,0.02178955,0.01586914,24.06107,-24.030535,-36.793890000000005,0
0.17608643,0.024536132999999998,0.022583007999999998,24.625954,-40.51145,-50.816795,0
0.15759277,0.024108887000000002,0.036743164,38.0,-62.52672,-73.29771,0
0.11053467,0.017700195,0.054016113,43.526720000000005,-75.25954399999999,-103.10687,0
0.13433838,0.018249512,0.042297363,48.190838,-73.64121999999999,-122.618324,0
0.16149902,0.01776123,0.039367676000000004,62.343509999999995,-67.71755999999999,-119.16031000000001,0
0.1675415,0.02319336,0.055664062,70.19847,-72.63359,-117.26717,0
0.15429688,0.018005371000000003,0.06286621,57.916030000000006,-80.54961999999999,-109.70992,0
0.13354492,0.010864258,0.04046631,23.358778,-69.51908,-115.62595,0
0.12164307,0.016723633,0.038146973,8.465649,-48.74046,-114.41221999999999,0
0.11126709,0.022583007999999998,0.030029297000000003,19.114504,-33.946564,-108.10687,0
0.10235596,0.024230957,0.018859863,56.793890000000005,-32.793890000000005,-99.938934,0
0.10015869,0.022094727,0.024902344,92.99235999999999,-33.83206,-84.41221999999999,0
0.1038208,0.015380858999999998,0.031677246,100.65649,-27.030534999999997,-76.824425,0
0.10699463,0.009338379,0.02154541,95.67939,-21.847328,-67.9771,0
0.11364746,0.009338379,0.037841797,79.58015400000001,-25.374046,-59.923664,0
0.11584473,-0.003540039,0.016235351999999998,52.702290000000005,-24.458015,-54.389313,0
0.12335205,-0.0028076171999999997,0.03112793,9.618319999999999,-12.106871,-39.412212,0
0.13140869,0.0010986328,0.06683349599999999,-42.839695,4.778626,-18.816793,0
0.12542725,0.008300781,0.028320312,-76.137405,21.954199,9.007633,0
0.13891602,0.015258788999999998,0.033325195,-85.24428,46.85496,46.564884,0
0.13348389,0.014709473,0.02142334,-86.32825,72.41221999999999,93.67939,0
0.13372803,0.020935059,0.089782715,-71.89313,87.20611,128.61831999999998,0
0.115112305,0.024108887000000002,0.043518065999999994,-44.297709999999995,93.12214,150.41985,0
0.107910156,0.024658202999999997,0.043762207000000004,-7.587786,93.76335999999999,155.40458999999998,0
0.12738037,0.019836426,0.010437011999999999,28.290077,92.67939,145.67175,0
0.14703369,0.020446777,0.032104492000000005,56.748093000000004,81.503815,136.93893,0
0.15332031,0.012939453,0.030029297000000003,64.07633,67.908394,105.71756,0
0.16314697,0.0010375977,0.058532715,33.862595,58.931297,76.83969,0
0.15106201,0.0006103516000000001,0.059692382999999995,-13.977098999999999,53.37404599999999,55.38168,0
0.13659668,0.012451172,0.057800292999999996,-51.358779999999996,41.267174,37.541985,0
0.11968994,0.019348145,0.03277588,-62.85496,33.045803,25.557251,0
0.11395264,0.026733398,0.017089844,-49.412212,28.0,25.007633,0
0.11199951,0.030639648,0.024414062,-9.816792999999999,21.343512,28.458015000000003,0
0.11413574,0.026794434,0.05328369,25.969465,14.038167999999999,29.435114000000002,0
0.11315918,0.019592285,0.046325684000000006,34.389313,8.2595415,30.770992,0
0.1161499,0.0178833,0.05407715,27.900763,4.5114503,25.053434,0
0.12030029,0.01751709,0.04840088,21.557251,5.8320612999999994,18.900763,0
0.12872314,0.022705077999999997,0.04321289,23.603054,5.396946400000001,12.053435,0
0.14117432,0.024108887000000002,0.036376953,38.984734,1.7175573,6.625953999999999,0
0.18060303,0.027954102,0.028991700000000002,57.198475,-1.4732825,3.7557251000000003,0
0.19104004,0.023071289,0.056884765999999996,69.53435,-15.641221,-2.0992367,0
0.17974854,0.022705077999999997,0.056396484000000004,70.32061,-41.51145,-14.061069,0
0.15026855,0.020385742,0.044067382999999995,66.59541999999999,-72.30534,-41.305344,0
0.11883545,0.0099487305,0.05029297,41.190838,-89.68701999999999,-78.061066,0
0.14361572,0.015991211,0.056030273,26.274809,-92.70992,-104.79389,0
0.15307617,0.012939453,0.05126953,26.755726,-96.72519,-120.9313,0
0.17205810000000002,0.017150878999999997,0.06347656,24.458015,-101.496185,-134.18321,0
0.15979004,0.010620117,0.037475586,7.5725193,-103.92367,-139.7939,0
0.13897705,0.01361084,0.05615234400000001,-16.687023,-90.1145,-152.76335,0
0.12609863,0.012634277,0.062194824,-26.770992,-72.24428,-156.1374,0
0.11816406,0.021911621000000003,0.04144287,-9.656488000000001,-57.77099200000001,-147.38168000000002,0
0.1083374,0.023986816,0.04876709,34.633587,-51.664124,-133.35115,0
0.10131836,0.01940918,0.048828125,70.099236,-47.55725,-115.65648999999999,0
0.09936523400000001,0.015991211,0.05731201,87.0229,-38.725190000000005,-99.01527,0
0.10644531,0.012512207,0.048034667999999996,86.69466,-29.877863,-81.47328,0
0.10772705,0.0071411133,0.040283203,79.25954399999999,-19.93893,-53.778625,0
0.11413574,0.0036010741999999997,0.023925781,60.931297,-10.320611,-31.114503999999997,0
0.124938965,0.0021362305,0.03265381,31.389313,3.3893129999999996,-1.0610687,0
0.12768555,0.0004882813,0.043945312,-8.977099,17.030535,32.282444,0
0.13336182,0.004638672,0.061401367000000005,-45.14504,37.480915,54.0,0
0.14068604,0.0063476562,0.050964355,-65.65649,58.923664,79.07633,0
0.1430664,0.010314941,0.050048828,-74.47328,79.19847,106.31298000000001,0
0.13085938,0.013549805,0.024658202999999997,-71.16031,91.74809,131.77863,0
0.11065674,0.014343261999999999,-0.0013427734,-61.687022999999996,96.71755999999999,142.48091000000002,0
0.10290527,0.012817383,0.010864258,-44.351147,99.42748,145.72519,0
0.13928223,0.016845703,-0.006164551,-14.496182999999998,104.25191,138.75572,0
0.14764404,0.019042969,0.02130127,14.671756,89.34351,137.09923999999998,0
0.14953613,0.014404297,0.0099487305,29.496183000000002,73.91603,116.75572,0
0.15008545,0.0034790040000000004,0.034301757999999995,14.274809,62.755726,93.862595,0
0.13970947,0.006591797,0.0009765625,-14.78626,58.587788,79.27481,0
0.13238525,0.0134887695,-0.009643555,-32.10687,51.076336,67.19084000000001,0
0.12768555,0.020629883,0.0010986328,-32.038166,39.82443,54.251906999999996,0
0.11956787,0.02154541,0.0012817383,-16.816793,32.9771,47.732826,0
0.12176514,0.020141601999999998,-0.018554688,3.8091602,26.076335999999998,38.335876,0
0.12188721,0.017578125,-0.022766112999999998,13.374045,18.068703,29.80916,0
0.12023926,0.018798828,-0.020080566,21.099237,10.618319999999999,21.648854999999998,0
0.11444092,0.020080566,-0.020874023000000002,27.435114000000002,4.7099237,14.748092000000002,0
0.11956787,0.014404297,-0.02130127,31.671754999999997,-0.43511450000000007,6.839694500000001,0
0.14257812,0.014587402,0.046081542999999996,27.48855,-4.9541984,-2.3816792999999996,0
0.14642334,0.0072631836,-0.0010986328,9.793892999999999,-16.12977,-14.748092000000002,0
0.18475342,0.014404297,0.08288574,-15.854961,-23.091601999999998,-39.053436,0
0.18115234,0.014465332,0.08093262,-37.89313,-36.85496,-60.51145,0
0.18829346,0.016723633,0.03338623,-36.15267,-53.366413,-90.38931,0
0.15899658,0.019836426,0.046447754,-19.198473,-72.35114,-108.50381499999999,0
0.12158203,0.020751953,0.04510498,1.5114504,-83.41221999999999,-131.68703,0
0.14074707,0.022277832,0.07098389,38.389313,-79.92367,-147.05344,0
0.15124512,0.01727295,0.08831787,74.618324,-79.24428,-138.69466,0
0.15026855,0.0119018555,0.07409668,84.74045600000001,-87.56489,-136.35878,0
0.15435791,0.009033203,0.07135010000000001,59.14504,-92.46565,-124.56488999999999,0
0.13482666,0.0032958984000000004,0.08483887,23.152672,-78.87786,-123.19847,0
0.12945557,0.009277344,0.08648682,2.9160306,-65.061066,-118.32061000000002,0
0.12121582,0.014221191000000001,0.03265381,7.1221375,-58.77099200000001,-110.70992,0
0.103515625,0.014221191000000001,0.0715332,25.61832,-55.412212,-103.0229,0
0.09271239999999999,0.011779785,0.06414795,37.473279999999995,-47.473279999999995,-89.27481,0
0.09185791,0.00970459,0.07489014,36.48855,-38.480915,-78.63359,0
0.095581055,0.0065307617,0.05041504,32.46565,-28.656488,-64.099236,0
0.09942627,0.0016479492000000002,0.0680542,23.709923,-15.587786999999999,-49.015266,0
0.10491943,0.002319336,0.060546875,10.648855000000001,-2.4045799999999997,-14.992367000000002,0
0.115722656,0.0036010741999999997,0.054626465,-11.19084,15.557251999999998,23.587785999999998,0
0.12738037,0.005859375,0.11022949,-40.931297,34.282444,65.89313,0
0.16125488,0.009521484,0.06677246,-69.0229,58.221375,104.21374,0
0.17089844,0.011962891000000002,0.07348633,-92.900764,84.66412,142.6565,0
0.16235352,0.01977539,0.04486084,-100.65649,104.46565,171.42747,0
0.14215088,0.01977539,0.03302002,-96.70229,110.96183,177.63359,0
0.12585449,0.023620605,0.02935791,-63.49618,105.54198500000001,174.64122,0
0.13696289,0.027832031,0.034484863,4.9694657,102.31298000000001,166.93893,0
0.1437378,0.027832031,0.04095459,61.37404599999999,87.98473,143.43511999999998,0
0.13787842,0.018127441,0.058532715,83.24428,66.98473,110.12977,0
0.14068604,0.0063476562,0.05834961,64.29771,67.67939,70.80153,0
0.14727783,-0.0048828125,0.026245117000000002,7.6488547,67.45038000000001,49.82443,0
0.13934326,0.008361816,0.03149414,-48.93893,63.938930000000006,38.51145,0
0.12268066400000001,0.016784668,-0.0015869141,-64.9313,53.83969499999999,30.335878000000005,0
0.12017822,0.029785156,-0.027404785,-44.496179999999995,50.84733,37.25954,0
0.11987305,0.02923584,0.017822266,-1.4961832,45.045803,43.908398,0
0.12139892599999999,0.022094727,0.0033569335999999996,36.21374,37.25954,42.206109999999995,0
0.12738037,0.016967773000000002,-0.007690429699999999,43.725190000000005,22.793894,35.85496,0
0.11968994,0.011169433999999999,0.012145996000000001,42.190838,16.099237,23.396946,0
0.12536621,0.0053100586,0.008972168,24.038168,7.40458,8.167939,0
0.125,0.00982666,-0.006164551,2.0992367,-5.328244000000001,-10.587786999999999,0
0.13275146,0.014038086000000002,0.026916503999999997,-1.6641221000000002,-17.610687,-24.595419,0
0.17065429999999998,0.018127441,0.010559082,4.4198474999999995,-25.335878,-33.190838,0
0.18182373,0.013427733999999998,-0.005065918,13.473282999999999,-43.641220000000004,-45.015266,0
0.19989014,0.017700195,0.025756836,25.519083,-67.48855,-55.900764,0
0.17425537,0.014343261999999999,0.036499023,21.91603,-97.79389,-72.24428,0
0.14929199,0.016113281,0.055725098,13.824428,-110.74808999999999,-103.96183,0
0.16583252,0.018310547,0.039978027,28.595419,-107.221375,-122.137405,0
0.17315674,0.014160156,0.046691895,45.412212,-110.9313,-121.87786000000001,0
0.17120361,0.017578125,0.044067382999999995,54.32824300000001,-122.43511000000001,-122.34351000000001,0
0.14422607,0.010192871,0.03967285,27.801527,-126.58778000000001,-128.83969,0
0.11968994,0.009338379,0.017822266,-29.259542,-94.145035,-145.23665,0
0.11279297,0.021911621000000003,0.04144287,-28.244274,-83.12977,-143.35115,0
0.10998535,0.018493652,0.029907227,-10.198473,-76.76335999999999,-137.66412,0
0.10223389,0.018005371000000003,0.04724121,12.312977,-66.35114,-119.29771000000001,0
0.095703125,0.016601562,0.044677734000000004,25.923664000000002,-52.183205,-99.36641,0
0.09594726599999999,0.008666992,0.056030273,25.824427,-34.312977000000004,-77.59541999999999,0
0.099731445,0.008300781,0.13006592,23.167938,-15.725191,-52.862595,0
0.10705566400000001,0.007507324,0.021057128999999997,23.862595000000002,3.8473281999999998,-21.587785999999998,0
0.10992432,0.0010986328,0.022949219,20.541985,22.404581,13.78626,0
0.11279297,0.0010375977,0.024353027000000003,6.2290077,38.473279999999995,47.816795,0
0.13641357,0.0072021483999999995,0.06677246,-7.923664,62.732826,79.92367,0
0.14770508,0.0078125,0.052001953,-24.122137,92.10687,120.42748,0
0.15502929999999998,0.011108398,0.07299805,-34.14504,114.29008,150.12213,0
0.14489746,0.017700195,0.06420898400000001,-34.030533,122.71756,170.73282,0
0.12652588,0.016845703,0.06726074,-26.091601999999998,122.44275,171.33588,0
0.13513184,0.010864258,0.07196045,-9.374044999999999,124.05344,163.28243999999998,0
0.15985107,0.011962891000000002,0.10272217,9.045800999999999,114.74808999999999,158.14503,0
0.15777588,0.010131836,0.03643799,20.732824,97.67175,132.15266,0
0.16070557,0.005493164,0.017089844,8.122137,87.72519,106.58015400000001,0
0.16436768,0.0045776367,0.037231445,-15.106871,81.36641,85.0,0
0.15344238,0.0099487305,0.031311035,-39.23664,71.938934,67.65649,0
0.14367676,0.018066406,0.05682373,-50.946564,55.007633,54.28244399999999,0
0.11950683599999999,0.020568848,0.030822753999999997,-42.923664,42.732826,46.129771999999996,0
0.11761474599999999,0.022705077999999997,0.0030517578000000003,-25.648854999999998,33.12214,39.984734,0
0.12048339999999998,0.020690918,0.030517577999999997,-6.3129773,24.61832,34.603054,0
0.12536621,0.018371582,-6.1035155999999994e-05,1.1068702,11.618319999999999,25.465649,0
0.12341308599999999,0.016845703,-0.0045166016,1.0152671,0.2519084,16.709923,0
0.1227417,0.013305663999999998,0.02319336,-7.9923663000000005,-8.954199000000001,3.0458016,0
0.12805176,0.018066406,0.03387451,-14.343511999999999,-16.610687,-9.335877,0
0.13452148,0.017944336,0.018798828,-14.687023000000002,-22.748089999999998,-27.641221999999996,0
0.14605713,0.017578125,0.011413574,-13.839695,-27.465649,-38.984734,0
0.18200684,0.018615723,0.039794922,-12.335877,-32.068703,-55.12214,0
0.18426514,0.018493652,0.04931640599999999,-5.633588,-41.702290000000005,-65.16031,0
0.1829834,0.024353027000000003,0.051940917999999996,4.4351144,-56.648853,-80.53435,0
0.15283203,0.019897461,0.03942871,21.068703,-74.65649,-95.84733,0
0.12347412,0.017944336,0.028930664,31.030534999999997,-84.0687,-120.87023,0
0.14111328,0.020080566,0.055664062,46.099236,-78.70992,-135.90076000000002,0
0.15753174,0.016296387,0.06347656,60.85496,-80.19084000000001,-131.71756000000002,0
0.16369629,0.017456055,0.06988525400000001,77.862595,-83.908394,-128.32062,0
0.15216064,0.016723633,0.05810547,74.0,-84.58778000000001,-117.63358999999998,0
0.1373291,0.010070800999999999,0.07299805,44.08397,-74.21374,-113.40458000000001,0
0.12780762,0.010803223,0.04724121,16.977098,-64.33588,-110.29008,0
0.121154785,0.016906738,0.041870117000000005,8.198473,-56.450382,-108.38931000000001,0
0.11199951,0.022705077999999997,0.070373535,19.587785999999998,-50.244274,-101.862595,0
0.10644531,0.021606445,0.045715332000000004,38.496179999999995,-44.55725,-92.40458000000001,0
0.109191895,0.017028809,0.047546387,54.37404599999999,-37.89313,-87.42748,0
0.106933594,0.010559082,0.053955078,56.35878,-28.068703000000003,-81.35878000000001,0
0.10357666,0.01739502,0.010375977,51.381679999999996,-18.343512,-70.9313,0
0.1026001,0.0063476562,0.04510498,47.15267,-6.366412,-53.992367,0
0.10394287,0.008422852,0.047851562,36.038166,10.564885,-23.671754999999997,0
0.10125732400000001,0.009460449000000001,0.032226562,16.007633,30.335878000000005,5.3587785000000006,0
0.10296631,0.008361816,0.045166015999999996,-0.5648854999999999,53.14504,37.25954,0
0.13659668,0.0078125,0.03265381,-13.519084,80.99235999999999,76.0229,0
0.15057373,0.008056641,0.04541015599999999,-28.587785999999998,109.16793999999999,113.57252,0
0.16192627,0.012390136999999999,0.009094238000000001,-21.977098,126.29771000000001,145.59541000000002,0
0.15051270000000003,0.01159668,0.0009765625,12.412213000000001,122.53435,163.2061,0
0.13476562,0.011962891000000002,-0.033691406,51.091602,92.229004,154.12213,0
0.11889648400000001,0.0,0.0005493164,63.22900799999999,68.65649,127.0687,0
0.1317749,-0.014770508,0.03527832,31.015265999999997,58.458015,95.0458,0
0.14691162,-0.028137207,0.02319336,-33.778625,50.244274,59.17556999999999,0
0.17236328,-0.018920898000000002,0.038391113,-122.54961999999999,36.656490000000005,25.687023,0
0.18658447,-0.005126953,0.031555176000000004,-221.16794,23.351145000000002,-3.1068702,0
0.14678955,0.016723633,0.027954102,-250.1374,12.0992365,-13.984732999999999,0
0.10485839999999998,0.05090332,0.010559082,-250.1374,7.7251906,-26.816793,0
0.08544922,0.06866455,-0.017028809,-124.96183,6.015267400000001,12.847328,0
0.08337402,0.06488037,0.0063476562,26.175573,12.503817,36.564884,0
0.08605957,0.03930664,-0.002746582,104.0458,16.236639999999998,59.916030000000006,0
0.09313965,0.021606445,0.037231445,111.83968999999999,20.633587,70.58778000000001,0
0.09509277,0.008422852,-0.016967773000000002,76.43511,30.465649,70.75572,0
0.11260986,0.006652831999999999,-0.005981445300000001,13.847328,41.160305,65.36641,0
0.12677002,0.0126953125,0.047546387,-42.53435,45.053436,58.244274,0
0.13787842,0.024475097999999997,0.05218506,-62.396946,42.725190000000005,54.198475,0
0.1517334,0.032470703,0.044677734000000004,-45.519085,37.694656,53.52672,0
0.15093994,0.03326416,0.02130127,-14.045801,30.335878000000005,42.862595,0
0.17730713,0.03326416,0.03186035,21.480917,19.954199,20.053434,0
0.1618042,0.027893066,-0.0010986328,50.55725,2.221374,-4.0610685,0
0.16766357,0.022827148,0.016845703,63.702290000000005,-17.42748,-40.53435,0
0.1473999,0.01763916,0.028747559,68.458015,-41.93893,-65.15267,0
0.11993408,0.017456055,0.020324707,74.1145,-64.33588,-94.34351,0
0.14642334,0.017944336,0.044677734000000004,92.45038000000001,-75.03053,-115.381676,0
0.16296387,0.009155273,0.06628418,107.0458,-86.01527,-115.28244,0
0.17645264,0.008361816,0.059692382999999995,101.76335999999999,-98.381676,-117.80916,0
0.18041992,0.0061035156000000005,0.055114746,78.35114,-106.908394,-113.0,0
0.16479492,0.0009765625,0.05682373,37.732826,-108.34351000000001,-115.67938999999998,0
0.15020752,0.0005493164,0.058776855,0.49618322,-105.908394,-125.61068999999999,0
0.13562012,0.004638672,0.06011963,-20.068703,-102.67175,-136.12213,0
0.1270752,0.009399414,0.06695557,-22.10687,-96.83969,-138.03053,0
0.12030029,0.0115356445,0.05224609400000001,-6.5038165999999995,-88.33588,-135.24428,0
0.11932373,0.013671875,0.05242919999999999,18.259542,-79.9542,-126.29008,0
0.11639404,0.0061035156000000005,0.041259766,34.366413,-74.56489,-116.85496499999999,0
0.10620117,-0.001159668,0.057678223,33.717556,-64.56489,-101.63359,0
0.097473145,-0.006958008000000001,0.044311523,23.786259,-47.549618,-84.65649,0
0.08862305,-0.010681152,0.060668945,4.519083999999999,-26.32061,-54.18320500000001,0
0.09082031,-0.0048828125,0.032287598,-12.80916,-5.152672,-18.282442,0
0.092285156,-0.0014038085999999999,0.04071045,-26.053434,17.435114000000002,24.885496,0
0.1116333,0.005676269499999999,0.052368164,-36.984734,49.038166,73.70229,0
0.1282959,0.006591797,0.047302246,-47.16794,76.72519,121.65648999999999,0
0.14349365,0.009765625,0.06921387,-64.42748,102.44275,159.54199,0
0.14257812,0.012756348,0.02557373,-79.137405,119.08397,184.58778,0
0.13580322,0.01184082,0.05822754,-79.099236,125.12977,191.59541000000002,0
0.14294434,0.0154418945,0.05615234400000001,-61.458015,126.091606,192.29771000000002,0
0.16699219,0.021057128999999997,0.03100586,-23.480917,114.229004,184.38168000000002,0
0.17779541,0.02130127,0.04119873,10.267176,100.07633,164.47328000000002,0
0.17883301,0.009338379,0.03466797,8.442748,85.381676,132.29007,0
0.17285156,0.006591797,0.05871582,-20.61832,74.381676,90.34351,0
0.15106201,0.0008544922000000001,0.03161621,-71.770996,68.8855,53.129771999999996,0
0.13232422,0.017578125,0.013671875,-109.29008,61.015266000000004,28.343512,0
0.12408447,0.025695799999999998,0.013366699,-100.0458,54.48855,21.198473,0
0.11932373,0.03375244,-0.014526367,-55.007633,46.85496,31.167938,0
0.11364746,0.032836914,-0.012817383,1.3358778999999998,39.198475,44.320609999999995,0
0.11859131,0.028747559,0.03857422,40.053436,34.229008,59.23664,0
0.11633301,0.023132324,0.0025634766,57.908398,29.534351,67.69466,0
0.12261963,0.015380858999999998,-0.054016113,57.198475,25.51145,65.72519,0
0.12817383,0.0134887695,-0.018127441,39.16794,11.450381,53.725190000000005,0
0.13598633,0.016784668,-0.028625487999999998,14.076335999999998,-1.4503816,36.610687,0
0.15075684,0.021728516,0.01184082,-0.96183205,-15.824428,12.328244,0
0.19055176,0.023010253999999997,0.030395507999999998,-9.21374,-30.198473,-24.282442,0
0.18377686,0.019165039,0.037902832000000004,-11.083969,-54.40458,-51.129771999999996,0
0.17974854,0.01965332,0.021850586,-11.137404,-76.30534,-89.67939,0
0.15686035,0.020385742,0.025512695,-8.687023,-97.56489,-116.061066,0
0.12597656,0.018188476999999998,0.016967773000000002,-12.969465,-109.00764,-147.60306,0
0.15045166,0.019592285,0.028869628999999997,-0.8702290000000001,-103.52672,-174.77863,0
0.16278076,0.022766112999999998,0.040405273,23.839695000000003,-99.91603,-173.54962,0
0.1807251,0.020324707,0.035339355,52.961833999999996,-100.67939,-171.52671999999998,0
0.17053223,0.02368164,0.051696777,65.16031,-103.32061,-155.89313,0
0.15454102,0.009765625,0.018920898000000002,55.46565,-94.16031,-148.6565,0
0.14178467,0.008911133,0.07141113,38.137405,-80.07633,-143.7481,0
0.12945557,0.013977051,0.08233642599999999,28.389313,-67.69466,-141.6565,0
0.12145996,0.016845703,0.09851074,43.0,-61.603054,-139.74046,0
0.10845947,0.015197753999999999,0.026245117000000002,63.17556999999999,-56.137405,-134.12978,0
0.109558105,0.013244628999999999,0.02142334,74.83206,-47.129771999999996,-125.25954399999999,0
0.10705566400000001,0.008056641,0.09436035,77.41221999999999,-40.458015,-110.40458000000001,0
0.09729004,0.0028686523,0.040283203,68.55725,-29.312977000000004,-90.0229,0
0.08825683599999999,-0.0014648438,0.06707764,49.595420000000004,-13.755725,-62.885498,0
0.08984375,0.0025024414000000004,0.06573486,21.190839999999998,5.9923663000000005,-34.78626,0
0.09216308599999999,0.0032958984000000004,0.07202148400000001,-9.748092,29.114503999999997,0.007633588,0
0.10186767599999999,0.005859375,0.0793457,-30.76336,58.984733999999996,36.0229,0
0.12609863,0.007080078,0.07202148400000001,-40.290077000000004,89.03053,80.496185,0
0.14270020000000003,0.0068359375,0.041137695,-46.23664,113.099236,127.57252,0
0.15112305,0.008483886999999999,0.037841797,-45.480915,130.15266,165.90076000000002,0
0.14703369,0.005004883,0.062194824,-36.748093,136.05344,189.2519,0
0.14501953,0.00030517580000000003,0.051391599999999996,-35.862595,132.03816,195.44275,0
0.15197754,-0.004028320300000001,0.07104492,-46.954197,126.229004,192.83969,0
0.17175293,-0.0021972656,0.06103515599999999,-58.541985,116.23664,177.96184,0
0.17840576,-0.0018920898,0.081970215,-79.541985,103.67939,158.77100000000002,0
0.18817139,0.0029907227,0.047180176,-115.10687,84.64121999999999,129.80153,0
0.17993164,0.005859375,0.057617188,-163.32062,66.137405,92.39695,0
0.15917969,0.014038086000000002,0.06225586,-206.29771000000002,51.587788,58.427482999999995,0
0.13287354,0.03173828,0.05041504,-211.45038,41.16794,37.694656,0
0.11846924,0.043762207000000004,0.028015137000000002,-146.45801,32.21374,35.045803,0
0.113342285,0.05126953,0.020751953,-44.885498,25.549618,40.526720000000005,0
0.10644531,0.042785645,0.028076172000000003,29.87023,17.412214000000002,51.618320000000004,0
0.11169433599999999,0.03265381,0.037902832000000004,59.610687,15.198473000000002,61.221375,0
0.11071777,0.024658202999999997,0.0134887695,60.12214,17.977098,60.885498,0
0.11676025400000001,0.022094727,0.02142334,44.969467,15.488548999999999,47.435116,0
0.12567139,0.022033691,0.022399902000000003,18.969465,8.030535,28.900763,0
0.13879395,0.025817871000000003,0.015991211,-6.3129773,-0.007633588,4.7480917,0
0.1473999,0.028198242000000002,0.018310547,-13.114504,-8.2213745,-26.557251,0
0.18188477,0.028625487999999998,0.049865723,-6.015267400000001,-18.038168,-62.16794,0
0.17791748,0.024841309,0.029968262000000002,3.1068702,-31.877863,-87.80915999999999,0
0.18176270000000003,0.02368164,0.03277588,14.908397,-47.16794,-118.57252,0
0.15136719,0.023010253999999997,0.030883789,31.816793,-63.396946,-136.9542,0
0.12683105,0.025146484,0.062438965,55.137405,-71.67939,-160.70228999999998,0
0.16052246,0.022949219,0.056030273,89.503815,-69.618324,-166.16031,0
0.17327881,0.019165039,0.052856445,122.80916,-76.64121999999999,-155.94656,0
0.18572998,0.015380858999999998,0.055480957000000004,136.19847,-90.69466,-147.18321,0
0.17926025,0.009521484,0.05694580000000001,125.16031000000001,-101.27481,-136.55725,0
0.16333008,0.0009765625,0.041259766,97.541985,-98.54961999999999,-138.15266,0
0.15142822,-0.0028076171999999997,0.050354004,63.251906999999996,-95.52672,-139.85497,0
0.13598633,-0.0009765625,0.051635742000000005,28.389313,-95.28244000000001,-141.77863,0
0.11987305,0.00024414060000000002,0.0154418945,6.7328243,-95.07633,-146.05344,0
0.10784912,0.007019043000000001,0.03112793,1.0305344,-87.98473,-138.38168000000002,0
0.099731445,0.0053100586,0.02960205,8.404580000000001,-74.618324,-129.62596000000002,0
0.08935547,0.0004882813,0.04699707,19.038168,-61.59542,-113.65648999999999,0
0.07775879,-0.0064697266000000005,0.014282227,20.709923,-41.961834,-87.938934,0
0.06707764,-0.00592041,0.01953125,12.236641,-19.473282,-53.44275,0
0.08453369,0.0003662109,0.030151367000000002,4.0839696000000005,3.6641220000000003,-7.2290077,0
0.09484863,0.009094238000000001,0.010437011999999999,-14.007632999999998,25.763360000000002,45.053436,0
0.10095215,0.0034790040000000004,0.022583007999999998,-28.38168,48.358779999999996,92.25191,0
0.13024902,0.006713866999999999,0.04510498,-43.992367,80.221375,136.38931000000002,0
0.16143799,0.0053710938,0.051940917999999996,-65.31298000000001,109.35113999999999,183.0229,0
0.18011475,0.0119018555,0.020629883,-82.45038000000001,132.46565,215.41222000000002,0
0.17370605,0.01586914,0.030700684,-93.0458,134.23665,228.55725,0
0.16009521,0.014709473,0.010375977,-83.55725,113.34351000000001,217.54199,0
0.16546631,0.0138549805,0.015563965,-62.77099200000001,96.37405,198.39694,0
0.1675415,0.02130127,0.08160400400000001,-39.862595,90.458015,165.01527,0
0.16369629,0.01776123,0.0345459,-36.587788,80.19847,121.30533999999999,0
0.1762085,0.016113281,0.028625487999999998,-42.404579999999996,67.34351,82.79389,0
0.15777588,0.011413574,0.019592285,-62.312977000000004,60.656490000000005,54.290077000000004,0
0.14105225,0.01977539,0.06689453,-84.58778000000001,58.64122,41.76336,0
0.11834717,0.029785156,0.03515625,-83.23664000000001,53.648853,41.14504,0
0.11102295,0.03527832,0.07196045,-65.183205,50.87786,54.129771999999996,0
0.1083374,0.04071045,0.03778076,-26.282442,47.748093,72.73283,0
0.11730957,0.04058838,0.030090332,28.152671999999995,46.091602,86.65649,0
0.12579346,0.032226562,0.032104492000000005,68.145035,38.679390000000005,89.854965,0
0.13189697,0.020080566,-0.02532959,73.24428,26.793894,79.53435,0
0.13964844,0.011108398,-0.00018310549999999998,42.007633,14.9007635,59.190838,0
0.14086914,0.010437011999999999,0.030517577999999997,-12.267176,4.89313,32.89313,0
0.14654541,0.021911621000000003,-0.005981445300000001,-43.931297,-6.5038165999999995,0.71755725,0
0.14208984,0.02911377,0.03656006,-37.274809999999995,-23.091601999999998,-37.198475,0
0.17175293,0.030639648,0.042236328,-10.137404,-34.618320000000004,-72.41221999999999,0
0.17114258,0.029846191,0.05255127,21.458015,-53.35878,-91.08397,0
0.18011475,0.026611327999999997,0.058532715,45.9771,-76.1145,-107.24428,0
0.14593506,0.019714355,0.08923339999999999,49.541985,-99.9542,-122.42748,0
0.1428833,0.018066406,0.03955078,44.755726,-103.48092,-144.48091000000002,0
0.17041016,0.0154418945,0.05908203,54.51145,-101.145035,-146.08397,0
0.18951416,0.020507812,0.06872558599999999,60.480915,-104.73283,-148.15266,0
0.19592285,0.018066406,0.083496094,55.648853,-115.137405,-143.1374,0
0.17315674,0.008850098,0.07556152,20.526718,-112.9542,-151.54199,0
0.15625,0.005859375,0.07519531,-10.977099,-99.10687,-168.2519,0
0.13934326,0.008544922,0.08227539,-16.91603,-86.79389,-177.49618999999998,0
0.12963867,0.015380858999999998,0.032226562,-0.5801527,-79.27481,-183.32062,0
0.12072754,0.019958496000000003,0.07000732400000001,22.87023,-75.37405,-182.54199,0
0.11340332,0.009765625,0.06414795,40.038166,-69.12977,-168.59541000000002,0
0.11059569999999999,0.011108398,0.05078125,53.396946,-57.16030500000001,-149.01527,0
0.10894775400000001,0.007446289,0.049865723,61.59542,-46.251907,-124.33588,0
0.10827637,0.007019043000000001,0.037719727,70.19084000000001,-35.633587,-91.091606,0
0.101623535,0.008483886999999999,0.03894043,74.60305,-22.900763,-60.16794,0
0.09777832,0.008056641,0.045776367000000005,70.57252,-3.1221373,-21.946566,0
0.099487305,0.005493164,0.030456543,49.91603,23.152672,14.893129,0
0.1149292,0.00030517580000000003,0.07348633,13.954199,59.106869999999994,53.59542,0
0.119018555,0.0037231445,0.07299805,-31.221375,97.46565,97.89313,0
0.12432861,0.007080078,0.07470703,-59.82443000000001,128.71756000000002,132.39694,0
0.12182617,0.00970459,0.009521484,-77.52672,146.41222,159.7939,0
0.12225342,0.0099487305,0.022460938,-65.854965,150.7481,180.16031,0
0.15142822,0.015014648,0.008483886999999999,-23.679389999999998,143.54962,195.00763,0
0.17150879,0.01928711,0.026184082,26.770992,129.27481,198.54199,0
0.17211914,0.014343261999999999,0.038146973,23.717558,107.59541999999999,167.59541000000002,0
0.1751709,0.0036010741999999997,0.06060791,-48.82443,93.145035,124.34351000000001,0
0.16320801,0.007385254,0.024902344,-123.52672,85.23664000000001,87.938934,0
0.14794922,0.02130127,0.032043457000000004,-159.35878,75.61069,66.64121999999999,0
0.13360596,0.038269042999999996,-0.014282227,-120.40458000000001,60.47328,70.28244000000001,0
0.12335205,0.043823242000000005,0.0010375977,-33.160305,46.23664,78.854965,0
0.11956787,0.037963867000000005,-0.0049438477,40.694656,40.17557,84.59541999999999,0
0.11633301,0.026611327999999997,0.0048828125,61.35878,36.83206,79.80915999999999,0
0.12231445,0.020874023000000002,-0.01953125,43.656490000000005,34.664124,69.42748,0
0.12878418,0.01751709,0.0009765625,9.984733,30.404581,55.84733000000001,0
0.1375122,0.024658202999999997,-0.0065307617,-17.022902,18.450382,37.0,0
0.1373291,0.027709961,0.00018310549999999998,-24.763360000000002,3.3816792999999996,17.839695000000003,0
0.14593506,0.029724121000000003,0.0029296875,-28.015265999999997,-7.3511453,-8.2595415,0
0.15234375,0.027893066,0.0075683593999999995,-34.23664,-17.923664000000002,-39.931297,0
0.16809082,0.037475586,0.0178833,-33.320609999999995,-29.32061,-65.01527,0
0.17041016,0.034240723,-0.015380858999999998,-30.687022999999996,-42.053436,-93.46565,0
0.16705322,0.030761719,-0.0025634766,-11.045800999999999,-57.267174,-111.45038000000001,0
0.13696289,0.027954102,0.0071411133,10.610686999999999,-74.137405,-125.62595,0
0.13067627,0.028625487999999998,0.019165039,34.0,-75.98473,-142.83969,0
0.15252686,0.030395507999999998,0.018615723,69.69466,-69.57252,-138.0,0
0.18048096,0.026489257999999998,0.05255127,90.29771,-73.29771,-127.32825,0
0.17895508,0.019958496000000003,0.06695557,91.70229,-82.0687,-111.73283,0
0.15759277,0.010803223,0.087768555,61.083969999999994,-83.59541999999999,-112.35113999999999,0
0.14178467,0.009216309,0.10113525400000001,33.954197,-75.70992,-120.69466000000001,0
0.13604736,0.004699707,0.04083252,14.862596,-66.99235999999999,-125.45801499999999,0
0.12048339999999998,0.006652831999999999,0.054748535,7.4732823,-69.38931,-134.16794,0
0.10888672,0.015136719,0.04443359400000001,16.854961,-67.48855,-139.03053,0
0.10437012,0.016296387,0.08581543,28.458015000000003,-59.068703,-132.29771000000002,0
0.10577392599999999,0.013183594,0.06298828,41.91603,-47.656490000000005,-117.49618500000001,0
0.10394287,0.01159668,0.066467285,47.244274,-36.198475,-99.03817,0
0.10076904,0.007873535,0.032470703,45.366413,-27.473282,-71.41984599999999,0
0.09954834,0.003112793,0.05224609400000001,35.85496,-12.763359,-40.923664,0
0.10070801,0.0040893555,0.08251953,19.954199,-0.71755725,-2.610687,0
0.09893799,0.006225586,0.0134887695,-7.1755724,18.496183,31.526718,0
0.11328125,0.0065307617,0.11199951,-43.038166,48.038166,66.39695,0
0.13153076,0.009460449000000001,0.0435791,-61.9771,78.1145,112.75572,0
0.14880371,0.012573242,0.05609131,-72.618324,108.41221999999999,156.90076000000002,0
0.15057373,0.01739502,0.07720947,-80.25954399999999,120.28244,187.18321,0
0.14025879,0.021362305,0.04833984400000001,-71.381676,118.84733,200.9313,0
0.13793945,0.018005371000000003,0.051208496,-42.931297,107.618324,195.69466,0
0.15332031,0.014770508,0.06695557,-11.549619,99.0229,184.48856,0
0.159729,0.016601562,0.034179688,5.946564700000001,84.31298000000001,150.46565,0
0.16851807,0.008300781,0.051574707000000004,-0.77099234,73.03053,108.618324,0
0.16784668,0.0026855469,0.033935547,-39.06107,64.53435,70.25191,0
0.1508789,0.005737304699999999,0.03289795,-85.64121999999999,54.961833999999996,38.48855,0
0.12780762,0.012451172,0.032958984,-118.35878000000001,44.702290000000005,19.854961,0
0.11627197,0.020812988,0.009765625,-123.1145,37.862595,14.229007999999999,0
0.10510254,0.028076172000000003,-0.004211426,-107.35113999999999,30.366413,25.290077,0
0.109558105,0.032470703,0.031555176000000004,-75.47328,23.519083,39.221375,0
0.11840819999999999,0.030151367000000002,0.01586914,-41.137405,19.480917,50.89313,0
0.12164307,0.026794434,0.024597168,-21.801527,18.633587,59.679390000000005,0
